
time;gFx;gFy;gFz;ax;ay;az;wx;wy;wz;Latitude;Longitude;Speed (m/s);
0,0870;-0,0851;0,0291;0,9997;0,0000;0,0000;0,0000;0,0000;0,0000;0,0000;0,00000000;0,00000000;0,00000000;
0,0870;-0,0851;0,0252;1,0012;0,0000;0,0000;0,0000;0,0000;0,0000;0,0000;32,06011576;34,79517875;0,00000000;
0,0880;-0,0832;0,0316;1,0022;0,0000;0,0000;0,0000;0,0000;0,0000;0,0000;32,06011576;34,79517875;0,00000000;
0,0880;-0,0827;0,0394;1,0012;0,0000;0,0000;0,0000;0,0000;0,0000;0,0000;32,06011576;34,79517875;0,00000000;
0,0880;-0,0822;0,0369;0,9968;0,0000;0,0000;0,0000;0,0000;0,0000;0,0000;32,06011576;34,79517875;0,00000000;
0,1070;-0,0822;0,0369;0,9968;0,0000;0,0000;0,0000;-0,0046;-0,0018;-0,0097;32,06011576;34,79517875;0,00000000;
0,1480;-0,0822;0,0369;0,9968;0,0000;0,0000;0,0000;0,0018;-0,0007;0,0042;32,06011576;34,79517875;0,00000000;
0,1490;-0,0822;0,0369;0,9968;0,0000;0,0000;-0,0000;0,0018;-0,0007;0,0042;32,06011576;34,79517875;0,00000000;
0,1760;-0,0842;0,0306;1,0007;0,0000;0,0000;-0,0000;0,0018;-0,0007;0,0042;32,06011576;34,79517875;0,00000000;
0,1780;-0,0861;0,0281;1,0002;0,0000;0,0000;-0,0000;0,0018;-0,0007;0,0042;32,06011576;34,79517875;0,00000000;
0,1790;-0,0866;0,0335;0,9988;0,0000;0,0000;-0,0000;0,0018;-0,0007;0,0042;32,06011576;34,79517875;0,00000000;
0,1810;-0,0827;0,0345;0,9988;0,0000;0,0000;-0,0000;0,0018;-0,0007;0,0042;32,06011576;34,79517875;0,00000000;
0,1890;-0,0827;0,0345;0,9988;0,0000;0,0000;-0,0000;0,0018;0,0014;0,0020;32,06011576;34,79517875;0,00000000;
0,1910;-0,0827;0,0345;0,9988;-0,0141;-0,0259;-0,0008;0,0018;0,0014;0,0020;32,06011576;34,79517875;0,00000000;
0,2280;-0,0827;0,0345;0,9988;-0,0141;-0,0259;-0,0008;0,0002;0,0014;-0,0012;32,06011576;34,79517875;0,00000000;
0,2290;-0,0827;0,0345;0,9988;0,0091;-0,0077;0,0027;0,0002;0,0014;-0,0012;32,06011576;34,79517875;0,00000000;
0,2640;-0,0822;0,0316;1,0022;0,0091;-0,0077;0,0027;0,0002;0,0014;-0,0012;32,06011576;34,79517875;0,00000000;
0,2660;-0,0837;0,0306;1,0002;0,0091;-0,0077;0,0027;0,0002;0,0014;-0,0012;32,06011576;34,79517875;0,00000000;
0,2670;-0,0832;0,0350;1,0002;0,0091;-0,0077;0,0027;0,0002;0,0014;-0,0012;32,06011576;34,79517875;0,00000000;
0,2680;-0,0856;0,0379;1,0017;0,0091;-0,0077;0,0027;0,0002;0,0014;-0,0012;32,06011576;34,79517875;0,00000000;
0,2690;-0,0856;0,0379;1,0017;0,0091;-0,0077;0,0027;-0,0003;-0,0002;-0,0001;32,06011576;34,79517875;0,00000000;
0,2700;-0,0856;0,0379;1,0017;0,0060;-0,0051;0,0018;-0,0003;-0,0002;-0,0001;32,06011576;34,79517875;0,00000000;
0,3070;-0,0856;0,0379;1,0017;0,0060;-0,0051;0,0018;0,0002;-0,0002;-0,0001;32,06011576;34,79517875;0,00000000;
0,3090;-0,0856;0,0379;1,0017;-0,0147;0,0201;0,0061;0,0002;-0,0002;-0,0001;32,06011576;34,79517875;0,00000000;
0,3470;-0,0856;0,0379;1,0017;-0,0147;0,0201;0,0061;-0,0003;-0,0007;-0,0001;32,06011576;34,79517875;0,00000000;
0,3490;-0,0856;0,0379;1,0017;-0,0112;0,0151;0,0046;-0,0003;-0,0007;-0,0001;32,06011576;34,79517875;0,00000000;
0,3510;-0,0876;0,0335;1,0012;-0,0112;0,0151;0,0046;-0,0003;-0,0007;-0,0001;32,06011576;34,79517875;0,00000000;
0,3530;-0,0881;0,0301;0,9997;-0,0112;0,0151;0,0046;-0,0003;-0,0007;-0,0001;32,06011576;34,79517875;0,00000000;
0,3550;-0,0881;0,0330;1,0002;-0,0112;0,0151;0,0046;-0,0003;-0,0007;-0,0001;32,06011576;34,79517875;0,00000000;
0,3560;-0,0861;0,0330;1,0041;-0,0112;0,0151;0,0046;-0,0003;-0,0007;-0,0001;32,06011576;34,79517875;0,00000000;
0,3580;-0,0851;0,0335;1,0012;-0,0112;0,0151;0,0046;-0,0003;-0,0007;-0,0001;32,06011576;34,79517875;0,00000000;
0,3890;-0,0851;0,0335;1,0012;-0,0112;0,0151;0,0046;0,0002;-0,0002;-0,0001;32,06011576;34,79517875;0,00000000;
0,3910;-0,0851;0,0335;1,0012;-0,0243;-0,0148;0,0062;0,0002;-0,0002;-0,0001;32,06011576;34,79517875;0,00000000;
0,4240;-0,0851;0,0335;1,0012;-0,0243;-0,0148;0,0062;0,0002;-0,0002;-0,0001;32,06011576;34,79517875;0,00000000;
0,4290;-0,0851;0,0335;1,0012;0,0063;-0,0031;0,0025;0,0002;-0,0002;-0,0001;32,06011576;34,79517875;0,00000000;
0,4310;-0,0846;0,0316;1,0012;0,0063;-0,0031;0,0025;0,0002;-0,0002;-0,0001;32,06011576;34,79517875;0,00000000;
0,4330;-0,0827;0,0345;1,0007;0,0063;-0,0031;0,0025;0,0002;-0,0002;-0,0001;32,06011576;34,79517875;0,00000000;
0,4350;-0,0817;0,0374;1,0002;0,0063;-0,0031;0,0025;0,0002;-0,0002;-0,0001;32,06011576;34,79517875;0,00000000;
0,4360;-0,0881;0,0379;1,0012;0,0063;-0,0031;0,0025;0,0002;-0,0002;-0,0001;32,06011576;34,79517875;0,00000000;
0,4650;-0,0881;0,0379;1,0012;0,0063;-0,0031;0,0025;0,0008;-0,0007;-0,0017;32,06011576;34,79517875;0,00000000;
0,4670;-0,0881;0,0379;1,0012;0,0050;-0,0028;0,0021;0,0008;-0,0007;-0,0017;32,06011576;34,79517875;0,00000000;
0,5030;-0,0881;0,0379;1,0012;0,0050;-0,0028;0,0021;0,0002;-0,0018;-0,0012;32,06011576;34,79517875;0,00000000;
0,5050;-0,0881;0,0379;1,0012;-0,0086;0,0168;-0,0024;0,0002;-0,0018;-0,0012;32,06011576;34,79517875;0,00000000;
0,5060;-0,0871;0,0311;1,0002;-0,0086;0,0168;-0,0024;0,0002;-0,0018;-0,0012;32,06011576;34,79517875;0,00000000;
0,5070;-0,0837;0,0316;1,0051;-0,0086;0,0168;-0,0024;0,0002;-0,0018;-0,0012;32,06011576;34,79517875;0,00000000;
0,5070;-0,0807;0,0316;1,0041;-0,0086;0,0168;-0,0024;0,0002;-0,0018;-0,0012;32,06011576;34,79517875;0,00000000;
0,5080;-0,0817;0,0345;1,0017;-0,0086;0,0168;-0,0024;0,0002;-0,0018;-0,0012;32,06011576;34,79517875;0,00000000;
0,5450;-0,0817;0,0345;1,0017;-0,0086;0,0168;-0,0024;0,0002;-0,0002;-0,0012;32,06011576;34,79517875;0,00000000;
0,5460;-0,0817;0,0345;1,0017;0,0232;-0,0105;0,0245;0,0002;-0,0002;-0,0012;32,06011576;34,79517875;0,00000000;
0,5860;-0,0817;0,0345;1,0017;-0,0490;0,0062;-0,0009;0,0002;-0,0002;-0,0012;32,06011576;34,79517875;0,00000000;
0,5890;-0,0817;0,0345;1,0017;-0,0490;0,0062;-0,0009;0,0002;-0,0002;-0,0001;32,06011576;34,79517875;0,00000000;
0,5900;-0,0842;0,0360;1,0027;-0,0490;0,0062;-0,0009;0,0002;-0,0002;-0,0001;32,06011576;34,79517875;0,00000000;
0,5910;-0,0900;0,0345;1,0012;-0,0490;0,0062;-0,0009;0,0002;-0,0002;-0,0001;32,06011576;34,79517875;0,00000000;
0,5920;-0,0959;0,0325;0,9993;-0,0490;0,0062;-0,0009;0,0002;-0,0002;-0,0001;32,06011576;34,79517875;0,00000000;
0,5920;-0,0934;0,0325;1,0002;-0,0490;0,0062;-0,0009;0,0002;-0,0002;-0,0001;32,06011576;34,79517875;0,00000000;
0,6240;-0,0934;0,0325;1,0002;-0,0490;0,0062;-0,0009;-0,0003;-0,0007;0,0004;32,06011576;34,79517875;0,00000000;
0,6260;-0,0934;0,0325;1,0002;-0,0438;0,0056;-0,0009;-0,0003;-0,0007;0,0004;32,06011576;34,79517875;0,00000000;
0,6620;-0,0934;0,0325;1,0002;-0,0549;-0,0022;-0,0008;-0,0003;-0,0007;0,0004;32,06011576;34,79517875;0,00000000;
0,6630;-0,0934;0,0325;1,0002;-0,0549;-0,0022;-0,0008;0,0002;-0,0012;0,0010;32,06011576;34,79517875;0,00000000;
0,6640;-0,0910;0,0335;1,0012;-0,0549;-0,0022;-0,0008;0,0002;-0,0012;0,0010;32,06011576;34,79517875;0,00000000;
0,6650;-0,0910;0,0345;1,0017;-0,0549;-0,0022;-0,0008;0,0002;-0,0012;0,0010;32,06011576;34,79517875;0,00000000;
0,6660;-0,0871;0,0330;1,0027;-0,0549;-0,0022;-0,0008;0,0002;-0,0012;0,0010;32,06011576;34,79517875;0,00000000;
0,6670;-0,0851;0,0330;1,0022;-0,0549;-0,0022;-0,0008;0,0002;-0,0012;0,0010;32,06011576;34,79517875;0,00000000;
0,7030;-0,0851;0,0330;1,0022;-0,0549;-0,0022;-0,0008;0,0002;-0,0018;0,0010;32,06011576;34,79517875;0,00000000;
0,7040;-0,0851;0,0330;1,0022;-0,0495;-0,0021;-0,0008;0,0002;-0,0018;0,0010;32,06011576;34,79517875;0,00000000;
0,7460;-0,0851;0,0330;1,0022;-0,0495;-0,0021;-0,0008;0,0002;-0,0007;-0,0006;32,06011576;34,79517875;0,00000000;
0,7490;-0,0788;0,0364;1,0002;-0,0495;-0,0021;-0,0008;0,0002;-0,0007;-0,0006;32,06011576;34,79517875;0,00000000;
0,7510;-0,0714;0,0355;0,9993;-0,0495;-0,0021;-0,0008;0,0002;-0,0007;-0,0006;32,06011576;34,79517875;0,00000000;
0,7530;-0,0690;0,0345;1,0032;-0,0495;-0,0021;-0,0008;0,0002;-0,0007;-0,0006;32,06011576;34,79517875;0,00000000;
0,7550;-0,0714;0,0316;1,0027;-0,0495;-0,0021;-0,0008;0,0002;-0,0007;-0,0006;32,06011576;34,79517875;0,00000000;
0,7560;-0,0714;0,0316;1,0027;0,0267;0,0037;0,0050;0,0002;-0,0007;-0,0006;32,06011576;34,79517875;0,00000000;
0,7830;-0,0714;0,0316;1,0027;0,0267;0,0037;0,0050;0,0002;0,0004;-0,0012;32,06011576;34,79517875;0,00000000;
0,7850;-0,0714;0,0316;1,0027;0,1374;0,0005;0,0044;0,0002;0,0004;-0,0012;32,06011576;34,79517875;0,00000000;
0,8220;-0,0714;0,0316;1,0027;-0,0164;0,0091;0,0125;0,0002;0,0004;-0,0012;32,06011576;34,79517875;0,00000000;
0,8230;-0,0714;0,0316;1,0027;-0,0164;0,0091;0,0125;-0,0003;0,0014;-0,0017;32,06011576;34,79517875;0,00000000;
0,8240;-0,0778;0,0345;1,0037;-0,0164;0,0091;0,0125;-0,0003;0,0014;-0,0017;32,06011576;34,79517875;0,00000000;
0,8260;-0,0871;0,0360;1,0012;-0,0164;0,0091;0,0125;-0,0003;0,0014;-0,0017;32,06011576;34,79517875;0,00000000;
0,8270;-0,0949;0,0340;1,0032;-0,0164;0,0091;0,0125;-0,0003;0,0014;-0,0017;32,06011576;34,79517875;0,00000000;
0,8280;-0,0964;0,0330;1,0037;-0,0164;0,0091;0,0125;-0,0003;0,0014;-0,0017;32,06011576;34,79517875;0,00000000;
0,8620;-0,0964;0,0330;1,0037;-0,0164;0,0091;0,0125;0,0008;-0,0007;-0,0001;32,06011576;34,79517875;0,00000000;
0,8630;-0,0964;0,0330;1,0037;-0,0148;0,0078;0,0111;0,0008;-0,0007;-0,0001;32,06011576;34,79517875;0,00000000;
0,8990;-0,0964;0,0330;1,0037;-0,0148;0,0078;0,0111;0,0008;-0,0007;-0,0001;32,06011576;34,79517875;0,00000000;
0,9030;-0,0964;0,0330;1,0037;-0,0843;0,0024;0,0070;0,0008;-0,0007;-0,0001;32,06011578;34,79517866;0,00000000;
0,9050;-0,0959;0,0345;1,0022;-0,0843;0,0024;0,0070;0,0008;-0,0007;-0,0001;32,06011578;34,79517866;0,00000000;
0,9060;-0,0920;0,0355;1,0012;-0,0843;0,0024;0,0070;0,0008;-0,0007;-0,0001;32,06011578;34,79517866;0,00000000;
0,9060;-0,0851;0,0345;1,0037;-0,0843;0,0024;0,0070;0,0008;-0,0007;-0,0001;32,06011578;34,79517866;0,00000000;
0,9070;-0,0798;0,0335;1,0007;-0,0843;0,0024;0,0070;0,0008;-0,0007;-0,0001;32,06011578;34,79517866;0,00000000;
0,9420;-0,0798;0,0335;1,0007;-0,0752;0,0021;0,0062;0,0008;-0,0007;-0,0001;32,06011578;34,79517866;0,00000000;
0,9430;-0,0798;0,0335;1,0007;-0,0752;0,0021;0,0062;0,0002;-0,0007;-0,0006;32,06011578;34,79517866;0,00000000;
0,9780;-0,0798;0,0335;1,0007;-0,0752;0,0021;0,0062;0,0008;0,0004;-0,0006;32,06011578;34,79517866;0,00000000;
0,9790;-0,0798;0,0335;1,0007;0,0511;-0,0026;0,0027;0,0008;0,0004;-0,0006;32,06011578;34,79517866;0,00000000;
0,9810;-0,0788;0,0335;1,0017;0,0511;-0,0026;0,0027;0,0008;0,0004;-0,0006;32,06011578;34,79517866;0,00000000;
0,9830;-0,0773;0,0335;1,0027;0,0511;-0,0026;0,0027;0,0008;0,0004;-0,0006;32,06011578;34,79517866;0,00000000;
0,9840;-0,0798;0,0345;1,0032;0,0511;-0,0026;0,0027;0,0008;0,0004;-0,0006;32,06011578;34,79517866;0,00000000;
0,9850;-0,0837;0,0340;1,0012;0,0511;-0,0026;0,0027;0,0008;0,0004;-0,0006;32,06011578;34,79517866;0,00000000;
1,0200;-0,0837;0,0340;1,0012;0,0511;-0,0026;0,0027;0,0018;0,0030;-0,0006;32,06011578;34,79517866;0,00000000;
1,0220;-0,0837;0,0340;1,0012;0,0550;-0,0015;0,0054;0,0018;0,0030;-0,0006;32,06011578;34,79517866;0,00000000;
1,0590;-0,0837;0,0340;1,0012;0,0550;-0,0015;0,0054;0,0002;0,0009;-0,0006;32,06011578;34,79517866;0,00000000;
1,0600;-0,0837;0,0340;1,0012;-0,0430;-0,0029;0,0005;0,0002;0,0009;-0,0006;32,06011578;34,79517866;0,00000000;
1,0620;-0,0895;0,0340;1,0007;-0,0430;-0,0029;0,0005;0,0002;0,0009;-0,0006;32,06011578;34,79517866;0,00000000;
1,0630;-0,0915;0,0335;1,0022;-0,0430;-0,0029;0,0005;0,0002;0,0009;-0,0006;32,06011578;34,79517866;0,00000000;
1,0650;-0,0915;0,0340;1,0027;-0,0430;-0,0029;0,0005;0,0002;0,0009;-0,0006;32,06011578;34,79517866;0,00000000;
1,0660;-0,0900;0,0350;1,0022;-0,0430;-0,0029;0,0005;0,0002;0,0009;-0,0006;32,06011578;34,79517866;0,00000000;
1,0990;-0,0900;0,0350;1,0022;-0,0430;-0,0029;0,0005;0,0002;0,0009;0,0004;32,06011578;34,79517866;0,00000000;
1,1010;-0,0900;0,0350;1,0022;-0,0380;-0,0026;0,0005;0,0002;0,0009;0,0004;32,06011578;34,79517866;0,00000000;
1,1390;-0,0900;0,0350;1,0022;-0,0380;-0,0026;0,0005;0,0002;-0,0007;-0,0001;32,06011578;34,79517866;0,00000000;
1,1400;-0,0900;0,0350;1,0022;-0,0155;-0,0038;0,0019;0,0002;-0,0007;-0,0001;32,06011578;34,79517866;0,00000000;
1,1410;-0,0895;0,0335;1,0027;-0,0155;-0,0038;0,0019;0,0002;-0,0007;-0,0001;32,06011578;34,79517866;0,00000000;
1,1420;-0,0866;0,0325;1,0012;-0,0155;-0,0038;0,0019;0,0002;-0,0007;-0,0001;32,06011578;34,79517866;0,00000000;
1,1430;-0,0846;0,0350;1,0017;-0,0155;-0,0038;0,0019;0,0002;-0,0007;-0,0001;32,06011578;34,79517866;0,00000000;
1,1440;-0,0822;0,0340;1,0022;-0,0155;-0,0038;0,0019;0,0002;-0,0007;-0,0001;32,06011578;34,79517866;0,00000000;
1,1780;-0,0822;0,0340;1,0022;-0,0155;-0,0038;0,0019;-0,0019;-0,0087;-0,0001;32,06011578;34,79517866;0,00000000;
1,1790;-0,0822;0,0340;1,0022;-0,0168;-0,0027;0,0014;-0,0019;-0,0087;-0,0001;32,06011578;34,79517866;0,00000000;
1,2200;-0,0822;0,0340;1,0022;-0,0168;-0,0027;0,0014;-0,0014;-0,0060;0,0015;32,06011578;34,79517866;0,00000000;
1,2220;-0,0802;0,0335;0,9997;-0,0168;-0,0027;0,0014;-0,0014;-0,0060;0,0015;32,06011578;34,79517866;0,00000000;
1,2240;-0,0793;0,0325;1,0032;-0,0168;-0,0027;0,0014;-0,0014;-0,0060;0,0015;32,06011578;34,79517866;0,00000000;
1,2260;-0,0798;0,0345;1,0022;-0,0168;-0,0027;0,0014;-0,0014;-0,0060;0,0015;32,06011578;34,79517866;0,00000000;
1,2270;-0,0842;0,0345;1,0032;-0,0168;-0,0027;0,0014;-0,0014;-0,0060;0,0015;32,06011578;34,79517866;0,00000000;
1,2280;-0,0842;0,0345;1,0032;0,0383;0,0023;-0,0061;-0,0014;-0,0060;0,0015;32,06011578;34,79517866;0,00000000;
1,2570;-0,0842;0,0345;1,0032;0,0383;0,0023;-0,0061;0,0018;0,0057;-0,0006;32,06011578;34,79517866;0,00000000;
1,2580;-0,0842;0,0345;1,0032;0,0474;-0,0014;0,0090;0,0018;0,0057;-0,0006;32,06011578;34,79517866;0,00000000;
1,2960;-0,0842;0,0345;1,0032;0,0474;-0,0014;0,0090;0,0072;0,0206;-0,0001;32,06011578;34,79517866;0,00000000;
1,2970;-0,0842;0,0345;1,0032;-0,0359;-0,0165;0,0002;0,0072;0,0206;-0,0001;32,06011578;34,79517866;0,00000000;
1,2980;-0,0881;0,0325;1,0027;-0,0359;-0,0165;0,0002;0,0072;0,0206;-0,0001;32,06011578;34,79517866;0,00000000;
1,2990;-0,0915;0,0325;1,0007;-0,0359;-0,0165;0,0002;0,0072;0,0206;-0,0001;32,06011578;34,79517866;0,00000000;
1,3010;-0,0929;0,0320;1,0022;-0,0359;-0,0165;0,0002;0,0072;0,0206;-0,0001;32,06011578;34,79517866;0,00000000;
1,3020;-0,0895;0,0340;1,0012;-0,0359;-0,0165;0,0002;0,0072;0,0206;-0,0001;32,06011578;34,79517866;0,00000000;
1,3390;-0,0895;0,0340;1,0012;-0,0359;-0,0165;0,0002;-0,0008;-0,0018;-0,0006;32,06011578;34,79517866;0,00000000;
1,3420;-0,0895;0,0340;1,0012;-0,0325;-0,0144;0,0001;-0,0008;-0,0018;-0,0006;32,06011578;34,79517866;0,00000000;
1,3760;-0,0895;0,0340;1,0012;-0,0325;-0,0144;0,0001;-0,0051;-0,0129;-0,0012;32,06011578;34,79517866;0,00000000;
1,3780;-0,0895;0,0340;1,0012;0,0007;0,0018;0,0010;-0,0051;-0,0129;-0,0012;32,06011578;34,79517866;0,00000000;
1,3790;-0,0861;0,0345;1,0017;0,0007;0,0018;0,0010;-0,0051;-0,0129;-0,0012;32,06011578;34,79517866;0,00000000;
1,3800;-0,0851;0,0330;1,0032;0,0007;0,0018;0,0010;-0,0051;-0,0129;-0,0012;32,06011578;34,79517866;0,00000000;
1,3820;-0,0846;0,0330;1,0012;0,0007;0,0018;0,0010;-0,0051;-0,0129;-0,0012;32,06011578;34,79517866;0,00000000;
1,3830;-0,0807;0,0325;1,0022;0,0007;0,0018;0,0010;-0,0051;-0,0129;-0,0012;32,06011578;34,79517866;0,00000000;
1,4170;-0,0807;0,0325;1,0022;0,0007;0,0018;0,0010;-0,0014;-0,0050;-0,0001;32,06011578;34,79517866;0,00000000;
1,4210;-0,0807;0,0325;1,0022;-0,0011;0,0021;0,0008;-0,0014;-0,0050;-0,0001;32,06011578;34,79517866;0,00000000;
1,4550;-0,0807;0,0325;1,0022;-0,0011;0,0021;0,0008;0,0013;0,0020;-0,0006;32,06011578;34,79517866;0,00000000;
1,4570;-0,0807;0,0325;1,0022;0,0423;-0,0085;-0,0035;0,0013;0,0020;-0,0006;32,06011578;34,79517866;0,00000000;
1,4580;-0,0807;0,0325;1,0012;0,0423;-0,0085;-0,0035;0,0013;0,0020;-0,0006;32,06011578;34,79517866;0,00000000;
1,4600;-0,0837;0,0335;1,0037;0,0423;-0,0085;-0,0035;0,0013;0,0020;-0,0006;32,06011578;34,79517866;0,00000000;
1,4610;-0,0871;0,0345;1,0041;0,0423;-0,0085;-0,0035;0,0013;0,0020;-0,0006;32,06011578;34,79517866;0,00000000;
1,4620;-0,0885;0,0330;1,0022;0,0423;-0,0085;-0,0035;0,0013;0,0020;-0,0006;32,06011578;34,79517866;0,00000000;
1,4940;-0,0885;0,0330;1,0022;0,0423;-0,0085;-0,0035;0,0002;-0,0002;-0,0001;32,06011578;34,79517866;0,00000000;
1,4980;-0,0885;0,0330;1,0022;-0,0008;0,0009;0,0125;0,0002;-0,0002;-0,0001;32,06011578;34,79517866;0,00000000;
1,5260;-0,0900;0,0320;1,0007;-0,0008;0,0009;0,0125;0,0002;-0,0002;-0,0001;32,06011578;34,79517866;0,00000000;
1,5280;-0,0905;0,0325;0,9993;-0,0008;0,0009;0,0125;0,0002;-0,0002;-0,0001;32,06011578;34,79517866;0,00000000;
1,5290;-0,0871;0,0350;1,0032;-0,0008;0,0009;0,0125;0,0002;-0,0002;-0,0001;32,06011578;34,79517866;0,00000000;
1,5390;-0,0871;0,0350;1,0032;-0,0008;0,0009;0,0125;0,0002;-0,0007;-0,0001;32,06011578;34,79517866;0,00000000;
1,5410;-0,0871;0,0350;1,0032;-0,0250;-0,0036;-0,0088;0,0002;-0,0007;-0,0001;32,06011578;34,79517866;0,00000000;
1,5760;-0,0871;0,0350;1,0032;-0,0250;-0,0036;-0,0088;0,0002;-0,0018;-0,0001;32,06011578;34,79517866;0,00000000;
1,5770;-0,0871;0,0350;1,0032;0,0381;-0,0033;0,0049;0,0002;-0,0018;-0,0001;32,06011578;34,79517866;0,00000000;
1,6150;-0,0871;0,0350;1,0032;0,0381;-0,0033;0,0049;0,0018;0,0020;0,0004;32,06011578;34,79517866;0,00000000;
1,6190;-0,0871;0,0350;1,0032;0,0346;-0,0035;0,0045;0,0018;0,0020;0,0004;32,06011578;34,79517866;0,00000000;
1,6200;-0,0837;0,0345;1,0027;0,0346;-0,0035;0,0045;0,0018;0,0020;0,0004;32,06011578;34,79517866;0,00000000;
1,6230;-0,0807;0,0325;1,0037;0,0346;-0,0035;0,0045;0,0018;0,0020;0,0004;32,06011578;34,79517866;0,00000000;
1,6240;-0,0822;0,0325;1,0012;0,0346;-0,0035;0,0045;0,0018;0,0020;0,0004;32,06011578;34,79517866;0,00000000;
1,6250;-0,0817;0,0350;1,0041;0,0346;-0,0035;0,0045;0,0018;0,0020;0,0004;32,06011578;34,79517866;0,00000000;
1,6270;-0,0837;0,0350;1,0017;0,0346;-0,0035;0,0045;0,0018;0,0020;0,0004;32,06011578;34,79517866;0,00000000;
1,6530;-0,0837;0,0350;1,0017;0,0346;-0,0035;0,0045;0,0050;0,0100;-0,0006;32,06011578;34,79517866;0,00000000;
1,6540;-0,0837;0,0350;1,0017;0,0342;-0,0049;0,0043;0,0050;0,0100;-0,0006;32,06011578;34,79517866;0,00000000;
1,6910;-0,0837;0,0350;1,0017;0,0342;-0,0049;0,0043;-0,0035;-0,0156;-0,0006;32,06011578;34,79517866;0,00000000;
1,6920;-0,0837;0,0350;1,0017;0,0179;0,0068;0,0062;-0,0035;-0,0156;-0,0006;32,06011578;34,79517866;0,00000000;
1,6920;-0,0837;0,0330;1,0027;0,0179;0,0068;0,0062;-0,0035;-0,0156;-0,0006;32,06011578;34,79517866;0,00000000;
1,6930;-0,0851;0,0311;1,0041;0,0179;0,0068;0,0062;-0,0035;-0,0156;-0,0006;32,06011578;34,79517866;0,00000000;
1,6930;-0,0846;0,0335;1,0017;0,0179;0,0068;0,0062;-0,0035;-0,0156;-0,0006;32,06011578;34,79517866;0,00000000;
1,6940;-0,0881;0,0369;1,0046;0,0179;0,0068;0,0062;-0,0035;-0,0156;-0,0006;32,06011578;34,79517866;0,00000000;
1,7350;-0,0881;0,0369;1,0046;0,0179;0,0068;0,0062;-0,0083;-0,0433;0,0047;32,06011578;34,79517866;0,00000000;
1,7360;-0,0881;0,0369;1,0046;-0,0247;0,0046;0,0098;-0,0083;-0,0433;0,0047;32,06011578;34,79517866;0,00000000;
1,7710;-0,0881;0,0369;1,0046;-0,0247;0,0046;0,0098;-0,0126;-0,0694;0,0468;32,06011578;34,79517866;0,00000000;
1,7740;-0,0885;0,0364;1,0032;-0,0247;0,0046;0,0098;-0,0126;-0,0694;0,0468;32,06011578;34,79517866;0,00000000;
1,7760;-0,0978;0,0379;1,0017;-0,0247;0,0046;0,0098;-0,0126;-0,0694;0,0468;32,06011578;34,79517866;0,00000000;
1,7770;-0,0798;0,0325;1,0017;-0,0247;0,0046;0,0098;-0,0126;-0,0694;0,0468;32,06011578;34,79517866;0,00000000;
1,7790;-0,0705;0,0272;1,0051;-0,0247;0,0046;0,0098;-0,0126;-0,0694;0,0468;32,06011578;34,79517866;0,00000000;
1,7800;-0,0705;0,0272;1,0051;-0,0706;0,0227;-0,0047;-0,0126;-0,0694;0,0468;32,06011578;34,79517866;0,00000000;
1,8120;-0,0705;0,0272;1,0051;-0,0706;0,0227;-0,0047;-0,0104;-0,0641;0,0164;32,06011578;34,79517866;0,00000000;
1,8140;-0,0705;0,0272;1,0051;-0,0851;0,0233;-0,0061;-0,0104;-0,0641;0,0164;32,06011578;34,79517866;0,00000000;
1,8500;-0,0705;0,0272;1,0051;-0,0851;0,0233;-0,0061;0,0066;-0,0364;-0,0070;32,06011578;34,79517866;0,00000000;
1,8530;-0,0705;0,0272;1,0051;0,0367;-0,0353;0,0121;0,0066;-0,0364;-0,0070;32,06011578;34,79517866;0,00000000;
1,8540;-0,0744;0,0291;1,0012;0,0367;-0,0353;0,0121;0,0066;-0,0364;-0,0070;32,06011578;34,79517866;0,00000000;
1,8560;-0,0783;0,0320;1,0066;0,0367;-0,0353;0,0121;0,0066;-0,0364;-0,0070;32,06011578;34,79517866;0,00000000;
1,8580;-0,0798;0,0330;1,0051;0,0367;-0,0353;0,0121;0,0066;-0,0364;-0,0070;32,06011578;34,79517866;0,00000000;
1,8590;-0,0798;0,0320;1,0159;0,0367;-0,0353;0,0121;0,0066;-0,0364;-0,0070;32,06011578;34,79517866;0,00000000;
1,8920;-0,0798;0,0320;1,0159;-0,0055;-0,0344;0,0080;0,0066;-0,0364;-0,0070;32,06011578;34,79517866;0,00000000;
1,8930;-0,0798;0,0320;1,0159;-0,0055;-0,0344;0,0080;0,0087;-0,1104;-0,0012;32,06011578;34,79517866;0,00000000;
1,9280;-0,0798;0,0320;1,0159;-0,0055;-0,0344;0,0080;0,0056;-0,0912;-0,0012;32,06011578;34,79517866;0,00000000;
1,9290;-0,0798;0,0320;1,0159;-0,0649;-0,0041;0,0361;0,0056;-0,0912;-0,0012;32,06011578;34,79517866;0,00000000;
1,9300;-0,0734;0,0330;1,0027;-0,0649;-0,0041;0,0361;0,0056;-0,0912;-0,0012;32,06011578;34,79517866;0,00000000;
1,9310;-0,0685;0,0345;0,9900;-0,0649;-0,0041;0,0361;0,0056;-0,0912;-0,0012;32,06011578;34,79517866;0,00000000;
1,9320;-0,0700;0,0316;1,0120;-0,0649;-0,0041;0,0361;0,0056;-0,0912;-0,0012;32,06011578;34,79517866;0,00000000;
1,9340;-0,0670;0,0330;1,0002;-0,0649;-0,0041;0,0361;0,0056;-0,0912;-0,0012;32,06011578;34,79517866;0,00000000;
1,9700;-0,0670;0,0330;1,0002;-0,0649;-0,0041;0,0361;0,0050;-0,0875;-0,0006;32,06011578;34,79517866;0,00000000;
1,9730;-0,0670;0,0330;1,0002;-0,0085;-0,0025;-0,0324;0,0050;-0,0875;-0,0006;32,06011578;34,79517866;0,00000000;
2,0100;-0,0670;0,0330;1,0002;-0,0085;-0,0025;-0,0324;0,0023;-0,1093;-0,0006;32,06011578;34,79517866;0,00000000;
2,0120;-0,0670;0,0330;1,0002;-0,0199;0,0041;0,0227;0,0023;-0,1093;-0,0006;32,06011578;34,79517866;0,00000000;
2,0130;-0,0661;0,0330;1,0012;-0,0199;0,0041;0,0227;0,0023;-0,1093;-0,0006;32,06011578;34,79517866;0,00000000;
2,0160;-0,0666;0,0340;1,0051;-0,0199;0,0041;0,0227;0,0023;-0,1093;-0,0006;32,06011578;34,79517866;0,00000000;
2,0170;-0,0641;0,0345;1,0144;-0,0199;0,0041;0,0227;0,0023;-0,1093;-0,0006;32,06011578;34,79517866;0,00000000;
2,0180;-0,0607;0,0335;1,0144;-0,0199;0,0041;0,0227;0,0023;-0,1093;-0,0006;32,06011578;34,79517866;0,00000000;
2,0500;-0,0607;0,0335;1,0144;-0,0199;0,0041;0,0227;0,0008;-0,2137;-0,0012;32,06011578;34,79517866;0,00000000;
2,0530;-0,0607;0,0335;1,0144;-0,0917;0,0034;0,0158;0,0008;-0,2137;-0,0012;32,06011578;34,79517866;0,00000000;
2,0880;-0,0607;0,0335;1,0144;-0,0917;0,0034;0,0158;0,0023;-0,4630;-0,0022;32,06011578;34,79517866;0,00000000;
2,0900;-0,0607;0,0335;1,0144;-0,1571;-0,0105;0,1612;0,0023;-0,4630;-0,0022;32,06011578;34,79517866;0,00000000;
2,0930;-0,0558;0,0311;1,0159;-0,1571;-0,0105;0,1612;0,0023;-0,4630;-0,0022;32,06011578;34,79517866;0,00000000;
2,0950;-0,0509;0,0325;1,0437;-0,1571;-0,0105;0,1612;0,0023;-0,4630;-0,0022;32,06011578;34,79517866;0,00000000;
2,0970;-0,0421;0,0325;1,0173;-0,1571;-0,0105;0,1612;0,0023;-0,4630;-0,0022;32,06011578;34,79517866;0,00000000;
2,0990;-0,0294;0,0311;0,9993;-0,1571;-0,0105;0,1612;0,0023;-0,4630;-0,0022;32,06011578;34,79517866;0,00000000;
2,1290;-0,0294;0,0311;0,9993;-0,1571;-0,0105;0,1612;0,0029;-0,5749;-0,0028;32,06011578;34,79517866;0,00000000;
2,1310;-0,0294;0,0311;0,9993;-0,3395;-0,0103;0,1377;0,0029;-0,5749;-0,0028;32,06011578;34,79517866;0,00000000;
2,1660;-0,0294;0,0311;0,9993;-0,3395;-0,0103;0,1377;0,0023;-0,6553;-0,0028;32,06011578;34,79517866;0,00000000;
2,1720;-0,0187;0,0301;1,0002;-0,3395;-0,0103;0,1377;0,0023;-0,6553;-0,0028;32,06011578;34,79517866;0,00000000;
2,1760;-0,0099;0,0330;1,0193;-0,3395;-0,0103;0,1377;0,0023;-0,6553;-0,0028;32,06011578;34,79517866;0,00000000;
2,1770;0,0004;0,0360;1,0354;-0,3395;-0,0103;0,1377;0,0023;-0,6553;-0,0028;32,06011578;34,79517866;0,00000000;
2,1780;0,0160;0,0325;1,0408;-0,3395;-0,0103;0,1377;0,0023;-0,6553;-0,0028;32,06011578;34,79517866;0,00000000;
2,1800;0,0160;0,0325;1,0408;-0,3344;-0,0218;-0,0496;0,0023;-0,6553;-0,0028;32,06011578;34,79517866;0,00000000;
2,2070;0,0160;0,0325;1,0408;-0,3344;-0,0218;-0,0496;-0,0024;-1,0186;-0,0289;32,06011578;34,79517866;0,00000000;
2,2080;0,0160;0,0325;1,0408;-0,4058;0,0043;0,2110;-0,0024;-1,0186;-0,0289;32,06011578;34,79517866;0,00000000;
2,2450;0,0160;0,0325;1,0408;-0,4058;0,0043;0,2110;-0,0168;-1,1661;-0,1040;32,06011578;34,79517866;0,00000000;
2,2460;0,0160;0,0325;1,0408;-0,1919;-0,0636;-0,1584;-0,0168;-1,1661;-0,1040;32,06011578;34,79517866;0,00000000;
2,2460;0,0683;0,0135;1,0335;-0,1919;-0,0636;-0,1584;-0,0168;-1,1661;-0,1040;32,06011578;34,79517866;0,00000000;
2,2470;0,0854;0,0198;0,9846;-0,1919;-0,0636;-0,1584;-0,0168;-1,1661;-0,1040;32,06011578;34,79517866;0,00000000;
2,2470;0,0561;0,0457;0,9538;-0,1919;-0,0636;-0,1584;-0,0168;-1,1661;-0,1040;32,06011578;34,79517866;0,00000000;
2,2480;0,0644;0,0472;0,9797;-0,1919;-0,0636;-0,1584;-0,0168;-1,1661;-0,1040;32,06011578;34,79517866;0,00000000;
2,2860;0,0644;0,0472;0,9797;-0,1919;-0,0636;-0,1584;-0,0046;-0,9179;-0,0326;32,06011578;34,79517866;0,00000000;
2,2890;0,0644;0,0472;0,9797;-0,5347;-0,0614;-0,1168;-0,0046;-0,9179;-0,0326;32,06011578;34,79517866;0,00000000;
2,3250;0,0644;0,0472;0,9797;-0,5347;-0,0614;-0,1168;-0,0152;-0,8188;-0,0608;32,06011578;34,79517866;0,00000000;
2,3270;0,0644;0,0472;0,9797;-0,4967;0,0375;-0,2150;-0,0152;-0,8188;-0,0608;32,06011578;34,79517866;0,00000000;
2,3280;0,1069;0,0330;0,9880;-0,4967;0,0375;-0,2150;-0,0152;-0,8188;-0,0608;32,06011578;34,79517866;0,00000000;
2,3290;0,1431;0,0286;0,9587;-0,4967;0,0375;-0,2150;-0,0152;-0,8188;-0,0608;32,06011578;34,79517866;0,00000000;
2,3300;0,2667;-0,0100;0,9533;-0,4967;0,0375;-0,2150;-0,0152;-0,8188;-0,0608;32,06011578;34,79517866;0,00000000;
2,3310;0,2637;-0,0051;0,9866;-0,4967;0,0375;-0,2150;-0,0152;-0,8188;-0,0608;32,06011578;34,79517866;0,00000000;
2,3680;0,2637;-0,0051;0,9866;-0,4967;0,0375;-0,2150;-0,1047;-0,9440;-0,3650;32,06011578;34,79517866;0,00000000;
2,3690;0,2637;-0,0051;0,9866;-0,8338;0,0516;-0,1486;-0,1047;-0,9440;-0,3650;32,06011578;34,79517866;0,00000000;
2,4040;0,2637;-0,0051;0,9866;-0,8338;0,0516;-0,1486;-0,0898;-0,7709;-0,2840;32,06011578;34,79517866;0,00000000;
2,4080;0,2637;-0,0051;0,9866;0,2062;-0,2492;-0,2012;-0,0898;-0,7709;-0,2840;32,06011578;34,79517866;0,00000000;
2,4090;0,1934;0,0262;0,9504;0,2062;-0,2492;-0,2012;-0,0898;-0,7709;-0,2840;32,06011578;34,79517866;0,00000000;
2,4100;0,1484;0,0501;0,9265;0,2062;-0,2492;-0,2012;-0,0898;-0,7709;-0,2840;32,06011578;34,79517866;0,00000000;
2,4120;0,0619;0,0912;1,0125;0,2062;-0,2492;-0,2012;-0,0898;-0,7709;-0,2840;32,06011578;34,79517866;0,00000000;
2,4130;0,2090;0,0399;1,0129;0,2062;-0,2492;-0,2012;-0,0898;-0,7709;-0,2840;32,06011578;34,79517866;0,00000000;
2,4460;0,2090;0,0399;1,0129;-1,0819;0,2984;0,0756;-0,0898;-0,7709;-0,2840;32,06011578;34,79517866;0,00000000;
2,4480;0,2090;0,0399;1,0129;-1,0819;0,2984;0,0756;0,0066;-0,8449;0,0212;32,06011578;34,79517866;0,00000000;
2,4870;0,2090;0,0399;1,0129;-1,0819;0,2984;0,0756;-0,0232;-0,9605;-0,0576;32,06011578;34,79517866;0,00000000;
2,4900;0,2090;0,0399;1,0129;0,1272;-0,1346;-0,3426;-0,0232;-0,9605;-0,0576;32,06011578;34,79517866;0,00000000;
2,4920;0,2633;0,0228;0,9494;0,1272;-0,1346;-0,3426;-0,0232;-0,9605;-0,0576;32,06011578;34,79517866;0,00000000;
2,4940;0,2838;0,0213;0,9338;0,1272;-0,1346;-0,3426;-0,0232;-0,9605;-0,0576;32,06011578;34,79517866;0,00000000;
2,4960;0,3541;0,0027;0,9074;0,1272;-0,1346;-0,3426;-0,0232;-0,9605;-0,0576;32,06011578;34,79517866;0,00000000;
2,4990;0,2413;0,0560;0,9113;0,1272;-0,1346;-0,3426;-0,0232;-0,9605;-0,0576;32,06011578;34,79517866;0,00000000;
2,5240;0,2413;0,0560;0,9113;0,1272;-0,1346;-0,3426;-0,0376;-0,7783;-0,0949;32,06011578;34,79517866;0,00000000;
2,5270;0,2413;0,0560;0,9113;-0,1578;-0,1285;-0,2457;-0,0376;-0,7783;-0,0949;32,06011578;34,79517866;0,00000000;
2,5630;0,2413;0,0560;0,9113;-0,1578;-0,1285;-0,2457;0,0077;-0,6036;0,0164;32,06011578;34,79517866;0,00000000;
2,5660;0,2593;0,0531;0,9294;-0,1578;-0,1285;-0,2457;0,0077;-0,6036;0,0164;32,06011578;34,79517866;0,00000000;
2,5670;0,3380;0,0257;0,9079;-0,1578;-0,1285;-0,2457;0,0077;-0,6036;0,0164;32,06011578;34,79517866;0,00000000;
2,5680;0,3414;0,0335;0,8908;-0,1578;-0,1285;-0,2457;0,0077;-0,6036;0,0164;32,06011578;34,79517866;0,00000000;
2,5690;0,3424;0,0311;0,9064;-0,1578;-0,1285;-0,2457;0,0077;-0,6036;0,0164;32,06011578;34,79517866;0,00000000;
2,5690;0,3424;0,0311;0,9064;-0,5713;0,1543;-0,2987;0,0077;-0,6036;0,0164;32,06011578;34,79517866;0,00000000;
2,6030;0,3424;0,0311;0,9064;-0,5713;0,1543;-0,2987;0,0135;-0,5280;0,0249;32,06011578;34,79517866;0,00000000;
2,6050;0,3424;0,0311;0,9064;-0,7465;0,1491;-0,2219;0,0135;-0,5280;0,0249;32,06011578;34,79517866;0,00000000;
2,6420;0,3424;0,0311;0,9064;-0,7465;0,1491;-0,2219;0,0125;-0,5914;0,0185;32,06011578;34,79517866;0,00000000;
2,6440;0,3424;0,0311;0,9064;-0,3075;0,0238;-0,2950;0,0125;-0,5914;0,0185;32,06011578;34,79517866;0,00000000;
2,6460;0,3527;0,0325;0,9010;-0,3075;0,0238;-0,2950;0,0125;-0,5914;0,0185;32,06011578;34,79517866;0,00000000;
2,6470;0,3580;0,0320;0,9098;-0,3075;0,0238;-0,2950;0,0125;-0,5914;0,0185;32,06011578;34,79517866;0,00000000;
2,6480;0,3683;0,0306;0,9221;-0,3075;0,0238;-0,2950;0,0125;-0,5914;0,0185;32,06011578;34,79517866;0,00000000;
2,6490;0,3781;0,0350;0,9318;-0,3075;0,0238;-0,2950;0,0125;-0,5914;0,0185;32,06011578;34,79517866;0,00000000;
2,6820;0,3781;0,0350;0,9318;-0,3075;0,0238;-0,2950;0,0412;-0,8289;0,0707;32,06011578;34,79517866;0,00000000;
2,6840;0,3781;0,0350;0,9318;-0,3746;0,0209;0,0444;0,0412;-0,8289;0,0707;32,06011578;34,79517866;0,00000000;
2,7210;0,3781;0,0350;0,9318;-0,3746;0,0209;0,0444;0,0940;-0,8092;0,1613;32,06011578;34,79517866;0,00000000;
2,7240;0,3781;0,0350;0,9318;-0,2856;0,0497;-0,3146;0,0940;-0,8092;0,1613;32,06011578;34,79517866;0,00000000;
2,7260;0,3194;0,0594;0,9162;-0,2856;0,0497;-0,3146;0,0940;-0,8092;0,1613;32,06011578;34,79517866;0,00000000;
2,7280;0,4040;0,0345;0,8605;-0,2856;0,0497;-0,3146;0,0940;-0,8092;0,1613;32,06011578;34,79517866;0,00000000;
2,7290;0,4944;0,0149;0,8341;-0,2856;0,0497;-0,3146;0,0940;-0,8092;0,1613;32,06011578;34,79517866;0,00000000;
2,7300;0,4626;0,0218;0,8483;-0,2856;0,0497;-0,3146;0,0940;-0,8092;0,1613;32,06011578;34,79517866;0,00000000;
2,7620;0,4626;0,0218;0,8483;-0,2856;0,0497;-0,3146;0,0428;-0,8151;0,0643;32,06011578;34,79517866;0,00000000;
2,7630;0,4626;0,0218;0,8483;-0,5568;0,0450;-0,1681;0,0428;-0,8151;0,0643;32,06011578;34,79517866;0,00000000;
2,8010;0,4626;0,0218;0,8483;-0,5568;0,0450;-0,1681;0,0253;-0,8002;0,0382;32,06011578;34,79517866;0,00000000;
2,8040;0,4626;0,0218;0,8483;-0,3160;-0,0669;-0,2504;0,0253;-0,8002;0,0382;32,06011578;34,79517866;0,00000000;
2,8060;0,4460;0,0291;0,8502;-0,3160;-0,0669;-0,2504;0,0253;-0,8002;0,0382;32,06011578;34,79517866;0,00000000;
2,8080;0,4646;0,0237;0,8400;-0,3160;-0,0669;-0,2504;0,0253;-0,8002;0,0382;32,06011578;34,79517866;0,00000000;
2,8100;0,4807;0,0247;0,8107;-0,3160;-0,0669;-0,2504;0,0253;-0,8002;0,0382;32,06011578;34,79517866;0,00000000;
2,8110;0,5041;0,0203;0,8116;-0,3160;-0,0669;-0,2504;0,0253;-0,8002;0,0382;32,06011578;34,79517866;0,00000000;
2,8410;0,5041;0,0203;0,8116;-0,3160;-0,0669;-0,2504;0,0034;-0,7059;0,0105;32,06011578;34,79517866;0,00000000;
2,8420;0,5041;0,0203;0,8116;-0,5409;-0,0645;-0,1104;0,0034;-0,7059;0,0105;32,06011578;34,79517866;0,00000000;
2,8780;0,5041;0,0203;0,8116;-0,5409;-0,0645;-0,1104;-0,0024;-0,7826;-0,0054;32,06011578;34,79517866;0,00000000;
2,8790;0,5041;0,0203;0,8116;-0,3975;-0,0650;-0,2469;-0,0024;-0,7826;-0,0054;32,06011578;34,79517866;0,00000000;
2,8810;0,5085;0,0291;0,8238;-0,3975;-0,0650;-0,2469;-0,0024;-0,7826;-0,0054;32,06011578;34,79517866;0,00000000;
2,8830;0,5164;0,0281;0,8278;-0,3975;-0,0650;-0,2469;-0,0024;-0,7826;-0,0054;32,06011578;34,79517866;0,00000000;
2,8840;0,5300;0,0276;0,8136;-0,3975;-0,0650;-0,2469;-0,0024;-0,7826;-0,0054;32,06011578;34,79517866;0,00000000;
2,8850;0,5418;0,0301;0,7579;-0,3975;-0,0650;-0,2469;-0,0024;-0,7826;-0,0054;32,06011578;34,79517866;0,00000000;
2,9190;0,5418;0,0301;0,7579;-0,3975;-0,0650;-0,2469;0,0023;-0,8018;-0,0017;32,06011578;34,79517866;0,00000000;
2,9210;0,5418;0,0301;0,7579;-0,3394;-0,0273;-0,2238;0,0023;-0,8018;-0,0017;32,06011578;34,79517866;0,00000000;
2,9580;0,5418;0,0301;0,7579;-0,3394;-0,0273;-0,2238;0,0082;-0,6564;0,0068;32,06011578;34,79517866;0,00000000;
2,9600;0,5418;0,0301;0,7579;-0,2170;0,0066;-0,4807;0,0082;-0,6564;0,0068;32,06011578;34,79517866;0,00000000;
2,9610;0,5540;0,0296;0,7838;-0,2170;0,0066;-0,4807;0,0082;-0,6564;0,0068;32,06011578;34,79517866;0,00000000;
2,9620;0,5598;0,0374;0,7569;-0,2170;0,0066;-0,4807;0,0082;-0,6564;0,0068;32,06011578;34,79517866;0,00000000;
2,9630;0,5740;0,0296;0,7320;-0,2170;0,0066;-0,4807;0,0082;-0,6564;0,0068;32,06011578;34,79517866;0,00000000;
2,9630;0,5838;0,0296;0,7554;-0,2170;0,0066;-0,4807;0,0082;-0,6564;0,0068;32,06011578;34,79517866;0,00000000;
3,0000;0,5838;0,0296;0,7554;-0,2170;0,0066;-0,4807;0,0056;-0,5280;0,0047;32,06011578;34,79517866;0,00000000;
3,0010;0,5838;0,0296;0,7554;-0,3732;0,0059;-0,3518;0,0056;-0,5280;0,0047;32,06011578;34,79517866;0,00000000;
3,0390;0,5838;0,0296;0,7554;-0,3732;0,0059;-0,3518;0,0029;-0,5962;0,0020;32,06011578;34,79517866;0,00000000;
3,0420;0,5838;0,0296;0,7554;-0,2719;-0,0244;-0,2314;0,0029;-0,5962;0,0020;32,06011578;34,79517866;0,00000000;
3,0430;0,5896;0,0272;0,7574;-0,2719;-0,0244;-0,2314;0,0029;-0,5962;0,0020;32,06011578;34,79517866;0,00000000;
3,0470;0,5994;0,0306;0,7520;-0,2719;-0,0244;-0,2314;0,0029;-0,5962;0,0020;32,06011578;34,79517866;0,00000000;
3,0480;0,6077;0,0306;0,7354;-0,2719;-0,0244;-0,2314;0,0029;-0,5962;0,0020;32,06011578;34,79517866;0,00000000;
3,0520;0,6155;0,0316;0,6988;-0,2719;-0,0244;-0,2314;0,0029;-0,5962;0,0020;32,06011578;34,79517866;0,00000000;
3,0780;0,6155;0,0316;0,6988;-0,2719;-0,0244;-0,2314;0,0008;-0,5392;0,0010;32,06011578;34,79517866;0,00000000;
3,0790;0,6155;0,0316;0,6988;-0,4248;-0,0239;-0,0982;0,0008;-0,5392;0,0010;32,06011578;34,79517866;0,00000000;
3,1200;0,6155;0,0316;0,6988;-0,4248;-0,0239;-0,0982;0,0050;-0,6084;0,0025;32,06011578;34,79517866;0,00000000;
3,1240;0,6155;0,0316;0,6988;-0,3555;-0,0149;-0,3166;0,0050;-0,6084;0,0025;32,06011578;34,79517866;0,00000000;
3,1260;0,6234;0,0281;0,7154;-0,3555;-0,0149;-0,3166;0,0050;-0,6084;0,0025;32,06011578;34,79517866;0,00000000;
3,1270;0,6312;0,0296;0,7291;-0,3555;-0,0149;-0,3166;0,0050;-0,6084;0,0025;32,06011578;34,79517866;0,00000000;
3,1280;0,6361;0,0311;0,7535;-0,3555;-0,0149;-0,3166;0,0050;-0,6084;0,0025;32,06011578;34,79517866;0,00000000;
3,1290;0,6458;0,0296;0,7447;-0,3555;-0,0149;-0,3166;0,0050;-0,6084;0,0025;32,06011578;34,79517866;0,00000000;
3,1580;0,6458;0,0296;0,7447;-0,3555;-0,0149;-0,3166;0,0125;-0,9706;0,0079;32,06011578;34,79517866;0,00000000;
3,1600;0,6458;0,0296;0,7447;-0,4079;-0,0160;0,1847;0,0125;-0,9706;0,0079;32,06011578;34,79517866;0,00000000;
3,1960;0,6458;0,0296;0,7447;-0,4079;-0,0160;0,1847;0,1249;-0,6654;0,1011;32,06011578;34,79517866;0,00000000;
3,1970;0,6458;0,0296;0,7447;-0,5949;0,0678;-0,4619;0,1249;-0,6654;0,1011;32,06011578;34,79517866;0,00000000;
3,1980;0,6541;0,0316;0,6826;-0,5949;0,0678;-0,4619;0,1249;-0,6654;0,1011;32,06011578;34,79517866;0,00000000;
3,2000;0,6131;0,0545;0,6455;-0,5949;0,0678;-0,4619;0,1249;-0,6654;0,1011;32,06011578;34,79517866;0,00000000;
3,2010;0,6419;0,0325;0,6435;-0,5949;0,0678;-0,4619;0,1249;-0,6654;0,1011;32,06011578;34,79517866;0,00000000;
3,2010;0,6561;0,0262;0,6431;-0,5949;0,0678;-0,4619;0,1249;-0,6654;0,1011;32,06011578;34,79517866;0,00000000;
3,2370;0,6561;0,0262;0,6431;-0,5949;0,0678;-0,4619;0,2532;-0,0838;0,2071;32,06011578;34,79517866;0,00000000;
3,2390;0,6561;0,0262;0,6431;-0,6087;0,0541;-0,4277;0,2532;-0,0838;0,2071;32,06011578;34,79517866;0,00000000;
3,2770;0,6561;0,0262;0,6431;-0,6087;0,0541;-0,4277;0,2346;-0,2223;0,2018;32,06011578;34,79517866;0,00000000;
3,2790;0,6561;0,0262;0,6431;-0,3114;-0,1747;-0,3463;0,2346;-0,2223;0,2018;32,06011578;34,79517866;0,00000000;
3,2820;0,6551;0,0242;0,6421;-0,3114;-0,1747;-0,3463;0,2346;-0,2223;0,2018;32,06011578;34,79517866;0,00000000;
3,2840;0,7064;-0,0002;0,6900;-0,3114;-0,1747;-0,3463;0,2346;-0,2223;0,2018;32,06011578;34,79517866;0,00000000;
3,2860;0,7382;0,0252;0,6953;-0,3114;-0,1747;-0,3463;0,2346;-0,2223;0,2018;32,06011578;34,79517866;0,00000000;
3,2880;0,7313;0,0413;0,6406;-0,3114;-0,1747;-0,3463;0,2346;-0,2223;0,2018;32,06011578;34,79517866;0,00000000;
3,3160;0,7313;0,0413;0,6406;-0,3114;-0,1747;-0,3463;0,1089;-0,9967;0,0878;32,06011578;34,79517866;0,00000000;
3,3180;0,7313;0,0413;0,6406;-0,5648;-0,1760;-0,0658;0,1089;-0,9967;0,0878;32,06011578;34,79517866;0,00000000;
3,3560;0,7313;0,0413;0,6406;-0,5648;-0,1760;-0,0658;-0,0152;-1,5975;-0,0097;32,06011578;34,79517866;0,00000000;
3,3580;0,7313;0,0413;0,6406;-0,2790;-0,0139;0,3186;-0,0152;-1,5975;-0,0097;32,06011578;34,79517866;0,00000000;
3,3590;0,7558;0,0330;0,6162;-0,2790;-0,0139;0,3186;-0,0152;-1,5975;-0,0097;32,06011578;34,79517866;0,00000000;
3,3600;0,7499;0,0135;0,6577;-0,2790;-0,0139;0,3186;-0,0152;-1,5975;-0,0097;32,06011578;34,79517866;0,00000000;
3,3610;0,7431;0,0247;0,5615;-0,2790;-0,0139;0,3186;-0,0152;-1,5975;-0,0097;32,06011578;34,79517866;0,00000000;
3,3620;0,7514;0,0340;0,4672;-0,2790;-0,0139;0,3186;-0,0152;-1,5975;-0,0097;32,06011578;34,79517866;0,00000000;
3,3950;0,7514;0,0340;0,4672;-0,2790;-0,0139;0,3186;-0,0328;-1,2817;-0,0257;32,06011578;34,79517866;0,00000000;
3,3970;0,7514;0,0340;0,4672;-0,5047;-0,1017;-0,1567;-0,0328;-1,2817;-0,0257;32,06011578;34,79517866;0,00000000;
3,4340;0,7514;0,0340;0,4672;-0,5047;-0,1017;-0,1567;-0,0040;-0,6484;-0,0076;32,06011578;34,79517866;0,00000000;
3,4370;0,7514;0,0340;0,4672;-0,3524;-0,0418;-0,7918;-0,0040;-0,6484;-0,0076;32,06011578;34,79517866;0,00000000;
3,4390;0,7592;0,0369;0,4359;-0,3524;-0,0418;-0,7918;-0,0040;-0,6484;-0,0076;32,06011578;34,79517866;0,00000000;
3,4400;0,7812;0,0301;0,4931;-0,3524;-0,0418;-0,7918;-0,0040;-0,6484;-0,0076;32,06011578;34,79517866;0,00000000;
3,4420;0,7924;0,0237;0,4965;-0,3524;-0,0418;-0,7918;-0,0040;-0,6484;-0,0076;32,06011578;34,79517866;0,00000000;
3,4430;0,7997;0,0232;0,4725;-0,3524;-0,0418;-0,7918;-0,0040;-0,6484;-0,0076;32,06011578;34,79517866;0,00000000;
3,4750;0,7997;0,0232;0,4725;-0,3524;-0,0418;-0,7918;-0,0866;-0,6164;-0,0486;32,06011578;34,79517866;0,00000000;
3,4780;0,7997;0,0232;0,4725;-0,4738;-0,0383;-0,5864;-0,0866;-0,6164;-0,0486;32,06011578;34,79517866;0,00000000;
3,5130;0,7997;0,0232;0,4725;-0,4738;-0,0383;-0,5864;-0,2171;-0,7426;-0,1199;32,06011578;34,79517866;0,00000000;
3,5170;0,7997;0,0232;0,4725;-0,3205;-0,1047;-0,3821;-0,2171;-0,7426;-0,1199;32,06011578;34,79517866;0,00000000;
3,5190;0,8081;0,0237;0,4691;-0,3205;-0,1047;-0,3821;-0,2171;-0,7426;-0,1199;32,06011578;34,79517866;0,00000000;
3,5200;0,8159;0,0213;0,4716;-0,3205;-0,1047;-0,3821;-0,2171;-0,7426;-0,1199;32,06011578;34,79517866;0,00000000;
3,5210;0,8227;0,0179;0,4701;-0,3205;-0,1047;-0,3821;-0,2171;-0,7426;-0,1199;32,06011578;34,79517866;0,00000000;
3,5230;0,8271;0,0228;0,4535;-0,3205;-0,1047;-0,3821;-0,2171;-0,7426;-0,1199;32,06011578;34,79517866;0,00000000;
3,5530;0,8271;0,0228;0,4535;-0,3205;-0,1047;-0,3821;-0,3673;-0,9765;-0,1828;32,06011578;34,79517866;0,00000000;
3,5560;0,8271;0,0228;0,4535;-0,4965;-0,0931;-0,0637;-0,3673;-0,9765;-0,1828;32,06011578;34,79517866;0,00000000;
3,5930;0,8271;0,0228;0,4535;-0,4965;-0,0931;-0,0637;-0,4552;-1,1560;-0,2062;32,06011578;34,79517866;0,00000000;
3,5960;0,8271;0,0228;0,4535;-0,5071;-0,0678;0,1157;-0,4552;-1,1560;-0,2062;32,06011578;34,79517866;0,00000000;
3,5980;0,8300;0,0316;0,4276;-0,5071;-0,0678;0,1157;-0,4552;-1,1560;-0,2062;32,06011578;34,79517866;0,00000000;
3,5990;0,8403;0,0267;0,4217;-0,5071;-0,0678;0,1157;-0,4552;-1,1560;-0,2062;32,06011578;34,79517866;0,00000000;
3,6020;0,8398;0,0355;0,3924;-0,5071;-0,0678;0,1157;-0,4552;-1,1560;-0,2062;32,06011578;34,79517866;0,00000000;
3,6030;0,8447;0,0438;0,3538;-0,5071;-0,0678;0,1157;-0,4552;-1,1560;-0,2062;32,06011578;34,79517866;0,00000000;
3,6330;0,8447;0,0438;0,3538;-0,5071;-0,0678;0,1157;-0,4025;-1,1245;-0,1461;32,06011578;34,79517866;0,00000000;
3,6350;0,8447;0,0438;0,3538;-0,5324;0,0566;-0,0984;-0,4025;-1,1245;-0,1461;32,06011578;34,79517866;0,00000000;
3,6730;0,8447;0,0438;0,3538;-0,5324;0,0566;-0,0984;-0,3087;-0,9626;-0,0869;32,06011578;34,79517866;0,00000000;
3,6760;0,8447;0,0438;0,3538;-0,4355;0,0724;-0,5106;-0,3087;-0,9626;-0,0869;32,06011578;34,79517866;0,00000000;
3,6780;0,8535;0,0438;0,3308;-0,4355;0,0724;-0,5106;-0,3087;-0,9626;-0,0869;32,06011578;34,79517866;0,00000000;
3,6790;0,8706;0,0296;0,3142;-0,4355;0,0724;-0,5106;-0,3087;-0,9626;-0,0869;32,06011578;34,79517866;0,00000000;
3,6810;0,8716;0,0330;0,2917;-0,4355;0,0724;-0,5106;-0,3087;-0,9626;-0,0869;32,06011578;34,79517866;0,00000000;
3,6820;0,8740;0,0374;0,2859;-0,4355;0,0724;-0,5106;-0,3087;-0,9626;-0,0869;32,06011578;34,79517866;0,00000000;
3,7130;0,8740;0,0374;0,2859;-0,4355;0,0724;-0,5106;-0,1265;-0,7565;-0,0528;32,06011578;34,79517866;0,00000000;
3,7170;0,8740;0,0374;0,2859;-0,5289;0,0698;-0,2394;-0,1265;-0,7565;-0,0528;32,06011578;34,79517866;0,00000000;
3,7510;0,8740;0,0374;0,2859;-0,5289;0,0698;-0,2394;0,1201;-0,4673;0,0164;32,06011578;34,79517866;0,00000000;
3,7530;0,8740;0,0374;0,2859;-0,4422;0,0925;-0,4841;0,1201;-0,4673;0,0164;32,06011578;34,79517866;0,00000000;
3,7560;0,8867;0,0311;0,2781;-0,4422;0,0925;-0,4841;0,1201;-0,4673;0,0164;32,06011578;34,79517866;0,00000000;
3,7570;0,8774;0,0482;0,2439;-0,4422;0,0925;-0,4841;0,1201;-0,4673;0,0164;32,06011578;34,79517866;0,00000000;
3,7590;0,8857;0,0384;0,2273;-0,4422;0,0925;-0,4841;0,1201;-0,4673;0,0164;32,06011578;34,79517866;0,00000000;
3,7600;0,8901;0,0320;0,2277;-0,4422;0,0925;-0,4841;0,1201;-0,4673;0,0164;32,06011578;34,79517866;0,00000000;
3,7920;0,8901;0,0320;0,2277;-0,4444;0,0787;-0,4470;0,1201;-0,4673;0,0164;32,06011578;34,79517866;0,00000000;
3,7950;0,8901;0,0320;0,2277;-0,4444;0,0787;-0,4470;0,3278;-0,0715;0,0771;32,06011578;34,79517866;0,00000000;
3,8310;0,8901;0,0320;0,2277;-0,4444;0,0787;-0,4470;0,3102;-0,1173;0,0723;32,06011578;34,79517866;0,00000000;
3,8340;0,8901;0,0320;0,2277;-0,3624;0,0330;-0,7774;0,3102;-0,1173;0,0723;32,06011578;34,79517866;0,00000000;
3,8360;0,8901;0,0360;0,2336;-0,3624;0,0330;-0,7774;0,3102;-0,1173;0,0723;32,06011578;34,79517866;0,00000000;
3,8370;0,8965;0,0306;0,2707;-0,3624;0,0330;-0,7774;0,3102;-0,1173;0,0723;32,06011578;34,79517866;0,00000000;
3,8380;0,9058;0,0223;0,2834;-0,3624;0,0330;-0,7774;0,3102;-0,1173;0,0723;32,06011578;34,79517866;0,00000000;
3,8400;0,9072;0,0208;0,2844;-0,3624;0,0330;-0,7774;0,3102;-0,1173;0,0723;32,06011578;34,79517866;0,00000000;
3,8690;0,9072;0,0208;0,2844;-0,3624;0,0330;-0,7774;0,0231;-0,7448;0,0058;32,06011578;34,79517866;0,00000000;
3,8710;0,9072;0,0208;0,2844;-0,3006;-0,0736;-0,0178;0,0231;-0,7448;0,0058;32,06011578;34,79517866;0,00000000;
3,9090;0,9072;0,0208;0,2844;-0,3006;-0,0736;-0,0178;-0,0855;-1,0963;-0,0172;32,06011578;34,79517866;0,00000000;
3,9120;0,9072;0,0208;0,2844;-0,3937;-0,0167;-0,1700;-0,0855;-1,0963;-0,0172;32,06011578;34,79517866;0,00000000;
3,9140;0,9024;0,0296;0,2619;-0,3937;-0,0167;-0,1700;-0,0855;-1,0963;-0,0172;32,06011578;34,79517866;0,00000000;
3,9160;0,9038;0,0291;0,2199;-0,3937;-0,0167;-0,1700;-0,0855;-1,0963;-0,0172;32,06011578;34,79517866;0,00000000;
3,9180;0,9068;0,0316;0,1872;-0,3937;-0,0167;-0,1700;-0,0855;-1,0963;-0,0172;32,06011578;34,79517866;0,00000000;
3,9190;0,9112;0,0325;0,1593;-0,3937;-0,0167;-0,1700;-0,0855;-1,0963;-0,0172;32,06011578;34,79517866;0,00000000;
3,9500;0,9112;0,0325;0,1593;-0,3937;-0,0167;-0,1700;-0,1052;-1,0670;-0,0161;32,06011578;34,79517866;0,00000000;
3,9520;0,9112;0,0325;0,1593;-0,4766;-0,0134;0,2179;-0,1052;-1,0670;-0,0161;32,06011578;34,79517866;0,00000000;
3,9890;0,9112;0,0325;0,1593;-0,4766;-0,0134;0,2179;-0,0690;-0,8428;-0,0108;32,06011578;34,79517866;0,00000000;
3,9910;0,9112;0,0325;0,1593;-0,4433;0,0128;-0,3736;-0,0690;-0,8428;-0,0108;32,06011578;34,79517866;0,00000000;
3,9930;0,9136;0,0316;0,1339;-0,4433;0,0128;-0,3736;-0,0690;-0,8428;-0,0108;32,06011578;34,79517866;0,00000000;
3,9940;0,9146;0,0340;0,0973;-0,4433;0,0128;-0,3736;-0,0690;-0,8428;-0,0108;32,06011578;34,79517866;0,00000000;
3,9960;0,9199;0,0330;0,0987;-0,4433;0,0128;-0,3736;-0,0690;-0,8428;-0,0108;32,06011578;34,79517866;0,00000000;
3,9970;0,9214;0,0340;0,0939;-0,4433;0,0128;-0,3736;-0,0690;-0,8428;-0,0108;32,06011578;34,79517866;0,00000000;
4,0290;0,9214;0,0340;0,0939;-0,4433;0,0128;-0,3736;-0,0669;-0,7203;-0,0076;32,06011578;34,79517866;0,00000000;
4,0340;0,9214;0,0340;0,0939;-0,4783;0,0138;-0,1042;-0,0669;-0,7203;-0,0076;32,06011578;34,79517866;0,00000000;
4,0670;0,9214;0,0340;0,0939;-0,4783;0,0138;-0,1042;-0,1047;-0,7000;-0,0081;32,06011578;34,79517866;0,00000000;
4,0710;0,9214;0,0340;0,0939;-0,4258;0,0204;-0,2451;-0,1047;-0,7000;-0,0081;32,06011578;34,79517866;0,00000000;
4,0730;0,9224;0,0325;0,0738;-0,4258;0,0204;-0,2451;-0,1047;-0,7000;-0,0081;32,06011578;34,79517866;0,00000000;
4,0740;0,9248;0,0301;0,0694;-0,4258;0,0204;-0,2451;-0,1047;-0,7000;-0,0081;32,06011578;34,79517866;0,00000000;
4,0760;0,9234;0,0316;0,0342;-0,4258;0,0204;-0,2451;-0,1047;-0,7000;-0,0081;32,06011578;34,79517866;0,00000000;
4,0770;0,9239;0,0330;0,0206;-0,4258;0,0204;-0,2451;-0,1047;-0,7000;-0,0081;32,06011578;34,79517866;0,00000000;
4,1090;0,9239;0,0330;0,0206;-0,4258;0,0204;-0,2451;-0,0509;-0,5434;-0,0038;32,06011578;34,79517866;0,00000000;
4,1110;0,9239;0,0330;0,0206;-0,4134;0,0049;-0,4980;-0,0509;-0,5434;-0,0038;32,06011578;34,79517866;0,00000000;
4,1470;0,9239;0,0330;0,0206;-0,4134;0,0049;-0,4980;-0,0056;-0,4300;-0,0012;32,06011578;34,79517866;0,00000000;
4,1500;0,9239;0,0330;0,0206;-0,3889;0,0125;-0,6199;-0,0056;-0,4300;-0,0012;32,06011578;34,79517866;0,00000000;
4,1520;0,9258;0,0340;0,0162;-0,3889;0,0125;-0,6199;-0,0056;-0,4300;-0,0012;32,06011578;34,79517866;0,00000000;
4,1530;0,9273;0,0311;0,0132;-0,3889;0,0125;-0,6199;-0,0056;-0,4300;-0,0012;32,06011578;34,79517866;0,00000000;
4,1550;0,9287;0,0320;0,0049;-0,3889;0,0125;-0,6199;-0,0056;-0,4300;-0,0012;32,06011578;34,79517866;0,00000000;
4,1560;0,9268;0,0325;-0,0058;-0,3889;0,0125;-0,6199;-0,0056;-0,4300;-0,0012;32,06011578;34,79517866;0,00000000;
4,1880;0,9268;0,0325;-0,0058;-0,3889;0,0125;-0,6199;0,0098;-0,3666;-0,0001;32,06011578;34,79517866;0,00000000;
4,1900;0,9268;0,0325;-0,0058;-0,3919;0,0120;-0,4741;0,0098;-0,3666;-0,0001;32,06011578;34,79517866;0,00000000;
4,2260;0,9268;0,0325;-0,0058;-0,3919;0,0120;-0,4741;0,0562;-0,1781;-0,0012;32,06011578;34,79517866;0,00000000;
4,2290;0,9263;0,0325;-0,0205;-0,3919;0,0120;-0,4741;0,0562;-0,1781;-0,0012;32,06011578;34,79517866;0,00000000;
4,2300;0,9268;0,0311;-0,0351;-0,3919;0,0120;-0,4741;0,0562;-0,1781;-0,0012;32,06011578;34,79517866;0,00000000;
4,2330;0,9283;0,0311;-0,0371;-0,3919;0,0120;-0,4741;0,0562;-0,1781;-0,0012;32,06011578;34,79517866;0,00000000;
4,2350;0,9273;0,0325;-0,0342;-0,3919;0,0120;-0,4741;0,0562;-0,1781;-0,0012;32,06011578;34,79517866;0,00000000;
4,2380;0,9273;0,0325;-0,0342;-0,3955;0,0070;-0,7074;0,0562;-0,1781;-0,0012;32,06011578;34,79517866;0,00000000;
4,2670;0,9273;0,0325;-0,0342;-0,3955;0,0070;-0,7074;0,0929;0,0068;-0,0022;32,06011578;34,79517866;0,00000000;
4,2690;0,9273;0,0325;-0,0342;-0,3887;0,0043;-0,6970;0,0929;0,0068;-0,0022;32,06011578;34,79517866;0,00000000;
4,3050;0,9273;0,0325;-0,0342;-0,3887;0,0043;-0,6970;0,0444;0,0749;-0,0017;32,06011578;34,79517866;0,00000000;
4,3080;0,9273;0,0325;-0,0342;-0,3713;0,0011;-0,8522;0,0444;0,0749;-0,0017;32,06011578;34,79517866;0,00000000;
4,3100;0,9273;0,0320;-0,0337;-0,3713;0,0011;-0,8522;0,0444;0,0749;-0,0017;32,06011578;34,79517866;0,00000000;
4,3110;0,9292;0,0325;-0,0322;-0,3713;0,0011;-0,8522;0,0444;0,0749;-0,0017;32,06011578;34,79517866;0,00000000;
4,3130;0,9287;0,0316;-0,0244;-0,3713;0,0011;-0,8522;0,0444;0,0749;-0,0017;32,06011578;34,79517866;0,00000000;
4,3140;0,9297;0,0316;-0,0210;-0,3713;0,0011;-0,8522;0,0444;0,0749;-0,0017;32,06011578;34,79517866;0,00000000;
4,3470;0,9297;0,0316;-0,0210;-0,3713;0,0011;-0,8522;0,0125;0,1053;-0,0006;32,06011578;34,79517866;0,00000000;
4,3490;0,9297;0,0316;-0,0210;-0,3472;0,0006;-0,7887;0,0125;0,1053;-0,0006;32,06011578;34,79517866;0,00000000;
4,3850;0,9297;0,0316;-0,0210;-0,3472;0,0006;-0,7887;-0,0312;0,0105;0,0025;32,06011578;34,79517866;0,00000000;
4,3870;0,9297;0,0316;-0,0210;-0,3444;0,0116;-0,5680;-0,0312;0,0105;0,0025;32,06011578;34,79517866;0,00000000;
4,3890;0,9292;0,0330;-0,0102;-0,3444;0,0116;-0,5680;-0,0312;0,0105;0,0025;32,06011578;34,79517866;0,00000000;
4,3900;0,9283;0,0335;-0,0004;-0,3444;0,0116;-0,5680;-0,0312;0,0105;0,0025;32,06011578;34,79517866;0,00000000;
4,3910;0,9292;0,0320;-0,0009;-0,3444;0,0116;-0,5680;-0,0312;0,0105;0,0025;32,06011578;34,79517866;0,00000000;
4,3920;0,9292;0,0296;-0,0073;-0,3444;0,0116;-0,5680;-0,0312;0,0105;0,0025;32,06011578;34,79517866;0,00000000;
4,4260;0,9292;0,0296;-0,0073;-0,3444;0,0116;-0,5680;-0,0829;-0,0976;0,0020;32,06011578;34,79517866;0,00000000;
4,4280;0,9292;0,0296;-0,0073;-0,3406;0,0138;-0,5236;-0,0829;-0,0976;0,0020;32,06011578;34,79517866;0,00000000;
4,4640;0,9292;0,0296;-0,0073;-0,3406;0,0138;-0,5236;-0,0078;0,0206;0,0004;32,06011578;34,79517866;0,00000000;
4,4660;0,9292;0,0296;-0,0073;-0,3166;-0,0059;-0,5958;-0,0078;0,0206;0,0004;32,06011578;34,79517866;0,00000000;
4,4680;0,9258;0,0306;-0,0268;-0,3166;-0,0059;-0,5958;-0,0078;0,0206;0,0004;32,06011578;34,79517866;0,00000000;
4,4700;0,9268;0,0320;-0,0200;-0,3166;-0,0059;-0,5958;-0,0078;0,0206;0,0004;32,06011578;34,79517866;0,00000000;
4,4710;0,9287;0,0325;-0,0068;-0,3166;-0,0059;-0,5958;-0,0078;0,0206;0,0004;32,06011578;34,79517866;0,00000000;
4,4720;0,9278;0,0325;-0,0073;-0,3166;-0,0059;-0,5958;-0,0078;0,0206;0,0004;32,06011578;34,79517866;0,00000000;
4,5040;0,9278;0,0325;-0,0073;-0,3166;-0,0059;-0,5958;0,0098;0,0057;-0,0001;32,06011578;34,79517866;0,00000000;
4,5070;0,9278;0,0325;-0,0073;-0,2814;-0,0054;-0,5313;0,0098;0,0057;-0,0001;32,06011578;34,79517866;0,00000000;
4,5440;0,9278;0,0325;-0,0073;-0,2814;-0,0054;-0,5313;0,0034;-0,0108;-0,0001;32,06011578;34,79517866;0,00000000;
4,5470;0,9278;0,0325;-0,0073;-0,2375;0,0121;-0,3921;0,0034;-0,0108;-0,0001;32,06011578;34,79517866;0,00000000;
4,5490;0,9297;0,0330;-0,0136;-0,2375;0,0121;-0,3921;0,0034;-0,0108;-0,0001;32,06011578;34,79517866;0,00000000;
4,5510;0,9297;0,0325;-0,0161;-0,2375;0,0121;-0,3921;0,0034;-0,0108;-0,0001;32,06011578;34,79517866;0,00000000;
4,5520;0,9287;0,0320;-0,0127;-0,2375;0,0121;-0,3921;0,0034;-0,0108;-0,0001;32,06011578;34,79517866;0,00000000;
4,5540;0,9283;0,0306;-0,0146;-0,2375;0,0121;-0,3921;0,0034;-0,0108;-0,0001;32,06011578;34,79517866;0,00000000;
4,5840;0,9283;0,0306;-0,0146;-0,2098;0,0024;-0,3906;0,0034;-0,0108;-0,0001;32,06011578;34,79517866;0,00000000;
4,5870;0,9283;0,0306;-0,0146;-0,2098;0,0024;-0,3906;-0,0008;-0,0103;0,0004;32,06011578;34,79517866;0,00000000;
4,6230;0,9283;0,0306;-0,0146;-0,1858;-0,0080;-0,2354;-0,0008;-0,0103;0,0004;32,06011578;34,79517866;0,00000000;
4,6260;0,9283;0,0306;-0,0146;-0,1858;-0,0080;-0,2354;-0,0046;-0,0902;-0,0006;32,06011578;34,79517866;0,00000000;
4,6280;0,9297;0,0311;-0,0034;-0,1858;-0,0080;-0,2354;-0,0046;-0,0902;-0,0006;32,06011578;34,79517866;0,00000000;
4,6290;0,9297;0,0301;-0,0014;-0,1858;-0,0080;-0,2354;-0,0046;-0,0902;-0,0006;32,06011578;34,79517866;0,00000000;
4,6300;0,9278;0,0306;-0,0102;-0,1858;-0,0080;-0,2354;-0,0046;-0,0902;-0,0006;32,06011578;34,79517866;0,00000000;
4,6310;0,9283;0,0316;-0,0239;-0,1858;-0,0080;-0,2354;-0,0046;-0,0902;-0,0006;32,06011578;34,79517866;0,00000000;
4,6630;0,9283;0,0316;-0,0239;-0,1858;-0,0080;-0,2354;0,0130;-0,0987;-0,0017;32,06011578;34,79517866;0,00000000;
4,6660;0,9283;0,0316;-0,0239;-0,1657;-0,0077;-0,1768;0,0130;-0,0987;-0,0017;32,06011578;34,79517866;0,00000000;
4,7010;0,9283;0,0316;-0,0239;-0,1657;-0,0077;-0,1768;-0,0392;-0,1440;0,0025;32,06011578;34,79517866;0,00000000;
4,7030;0,9283;0,0316;-0,0239;-0,1592;0,0069;-0,2638;-0,0392;-0,1440;0,0025;32,06011578;34,79517866;0,00000000;
4,7060;0,9268;0,0320;-0,0293;-0,1592;0,0069;-0,2638;-0,0392;-0,1440;0,0025;32,06011578;34,79517866;0,00000000;
4,7070;0,9283;0,0325;-0,0146;-0,1592;0,0069;-0,2638;-0,0392;-0,1440;0,0025;32,06011578;34,79517866;0,00000000;
4,7080;0,9297;0,0301;-0,0097;-0,1592;0,0069;-0,2638;-0,0392;-0,1440;0,0025;32,06011578;34,79517866;0,00000000;
4,7090;0,9253;0,0330;-0,0332;-0,1592;0,0069;-0,2638;-0,0392;-0,1440;0,0025;32,06011578;34,79517866;0,00000000;
4,7420;0,9253;0,0330;-0,0332;-0,1592;0,0069;-0,2638;-0,1803;-0,2899;0,0207;32,06011578;34,79517866;0,00000000;
4,7450;0,9253;0,0330;-0,0332;-0,1416;0,0128;-0,1420;-0,1803;-0,2899;0,0207;32,06011578;34,79517866;0,00000000;
4,7800;0,9253;0,0330;-0,0332;-0,1416;0,0128;-0,1420;0,0023;0,0947;0,0121;32,06011578;34,79517866;0,00000000;
4,7820;0,9253;0,0330;-0,0332;-0,1518;0,0394;-0,2917;0,0023;0,0947;0,0121;32,06011578;34,79517866;0,00000000;
4,7850;0,9195;0,0413;-0,0713;-0,1518;0,0394;-0,2917;0,0023;0,0947;0,0121;32,06011578;34,79517866;0,00000000;
4,7870;0,9346;0,0228;-0,0742;-0,1518;0,0394;-0,2917;0,0023;0,0947;0,0121;32,06011578;34,79517866;0,00000000;
4,7880;0,9287;0,0301;-0,0459;-0,1518;0,0394;-0,2917;0,0023;0,0947;0,0121;32,06011578;34,79517866;0,00000000;
4,7900;0,9278;0,0306;-0,0327;-0,1518;0,0394;-0,2917;0,0023;0,0947;0,0121;32,06011578;34,79517866;0,00000000;
4,8210;0,9278;0,0306;-0,0327;-0,1518;0,0394;-0,2917;0,0492;0,2241;-0,0022;32,06011578;34,79517866;0,00000000;
4,8230;0,9278;0,0306;-0,0327;-0,0962;-0,0295;-0,4907;0,0492;0,2241;-0,0022;32,06011578;34,79517866;0,00000000;
4,8620;0,9278;0,0306;-0,0327;-0,1212;0,0000;-0,2683;0,0492;0,2241;-0,0022;32,06011578;34,79517866;0,00000000;
4,8640;0,9278;0,0306;-0,0327;-0,1212;0,0000;-0,2683;-0,0104;0,1287;0,0020;32,06011578;34,79517866;0,00000000;
4,8700;0,9283;0,0281;-0,0185;-0,1212;0,0000;-0,2683;-0,0104;0,1287;0,0020;32,06011578;34,79517866;0,00000000;
4,8720;0,9278;0,0306;-0,0268;-0,1212;0,0000;-0,2683;-0,0104;0,1287;0,0020;32,06011578;34,79517866;0,00000000;
4,8740;0,9268;0,0335;-0,0263;-0,1212;0,0000;-0,2683;-0,0104;0,1287;0,0020;32,06011578;34,79517866;0,00000000;
4,8750;0,9287;0,0306;-0,0127;-0,1212;0,0000;-0,2683;-0,0104;0,1287;0,0020;32,06011578;34,79517866;0,00000000;
4,8990;0,9287;0,0306;-0,0127;-0,1190;0,0006;-0,2966;-0,0104;0,1287;0,0020;32,06011578;34,79517866;0,00000000;
4,9010;0,9287;0,0306;-0,0127;-0,1190;0,0006;-0,2966;0,0002;0,0915;0,0015;32,06011578;34,79517866;0,00000000;
4,9390;0,9287;0,0306;-0,0127;-0,1091;-0,0021;-0,1870;0,0002;0,0915;0,0015;32,06011578;34,79517866;0,00000000;
4,9410;0,9287;0,0306;-0,0127;-0,1091;-0,0021;-0,1870;0,0109;0,0323;0,0015;32,06011578;34,79517866;0,00000000;
4,9420;0,9287;0,0296;-0,0053;-0,1091;-0,0021;-0,1870;0,0109;0,0323;0,0015;32,06011578;34,79517866;0,00000000;
4,9420;0,9278;0,0311;-0,0175;-0,1091;-0,0021;-0,1870;0,0109;0,0323;0,0015;32,06011578;34,79517866;0,00000000;
4,9430;0,9292;0,0306;-0,0156;-0,1091;-0,0021;-0,1870;0,0109;0,0323;0,0015;32,06011578;34,79517866;0,00000000;
4,9440;0,9287;0,0311;-0,0185;-0,1091;-0,0021;-0,1870;0,0109;0,0323;0,0015;32,06011578;34,79517866;0,00000000;
4,9790;0,9287;0,0311;-0,0185;-0,1091;-0,0021;-0,1870;0,0231;0,0451;0,0004;32,06011578;34,79517866;0,00000000;
4,9800;0,9287;0,0311;-0,0185;-0,1072;-0,0020;-0,1997;0,0231;0,0451;0,0004;32,06011578;34,79517866;0,00000000;
5,0170;0,9287;0,0311;-0,0185;-0,1072;-0,0020;-0,1997;0,0135;0,0046;-0,0001;32,06011578;34,79517866;0,00000000;
5,0190;0,9287;0,0311;-0,0185;-0,1069;-0,0020;-0,2544;0,0135;0,0046;-0,0001;32,06011578;34,79517866;0,00000000;
5,0200;0,9268;0,0296;-0,0190;-0,1069;-0,0020;-0,2544;0,0135;0,0046;-0,0001;32,06011578;34,79517866;0,00000000;
5,0200;0,9297;0,0306;-0,0083;-0,1069;-0,0020;-0,2544;0,0135;0,0046;-0,0001;32,06011578;34,79517866;0,00000000;
5,0210;0,9297;0,0311;0,0000;-0,1069;-0,0020;-0,2544;0,0135;0,0046;-0,0001;32,06011578;34,79517866;0,00000000;
5,0210;0,9283;0,0311;-0,0112;-0,1069;-0,0020;-0,2544;0,0135;0,0046;-0,0001;32,06011578;34,79517866;0,00000000;
5,0570;0,9283;0,0311;-0,0112;-0,1069;-0,0020;-0,2544;-0,0035;-0,0912;-0,0012;32,06011578;34,79517866;0,00000000;
5,0580;0,9283;0,0311;-0,0112;-0,0960;0,0023;-0,1092;-0,0035;-0,0912;-0,0012;32,06011578;34,79517866;0,00000000;
5,0960;0,9283;0,0311;-0,0112;-0,0960;0,0023;-0,1092;0,0221;-0,0934;-0,0022;32,06011578;34,79517866;0,00000000;
5,0980;0,9283;0,0311;-0,0112;-0,0925;-0,0030;-0,1843;0,0221;-0,0934;-0,0022;32,06011578;34,79517866;0,00000000;
5,0990;0,9283;0,0311;-0,0097;-0,0925;-0,0030;-0,1843;0,0221;-0,0934;-0,0022;32,06011578;34,79517866;0,00000000;
5,0990;0,9283;0,0291;-0,0141;-0,0925;-0,0030;-0,1843;0,0221;-0,0934;-0,0022;32,06011578;34,79517866;0,00000000;
5,1000;0,9287;0,0311;-0,0361;-0,0925;-0,0030;-0,1843;0,0221;-0,0934;-0,0022;32,06011578;34,79517866;0,00000000;
5,1000;0,9283;0,0330;-0,0190;-0,0925;-0,0030;-0,1843;0,0221;-0,0934;-0,0022;32,06011578;34,79517866;0,00000000;
5,1370;0,9283;0,0330;-0,0190;-0,0821;-0,0041;-0,1559;0,0221;-0,0934;-0,0022;32,06011578;34,79517866;0,00000000;
5,1380;0,9283;0,0330;-0,0190;-0,0821;-0,0041;-0,1559;0,0950;-0,0215;-0,0049;32,06011578;34,79517866;0,00000000;
5,1750;0,9283;0,0330;-0,0190;-0,0821;-0,0041;-0,1559;-0,0078;-0,3480;-0,0028;32,06011578;34,79517866;0,00000000;
5,1770;0,9283;0,0330;-0,0190;-0,0646;-0,0004;0,1482;-0,0078;-0,3480;-0,0028;32,06011578;34,79517866;0,00000000;
5,1770;0,9292;0,0316;0,0044;-0,0646;-0,0004;0,1482;-0,0078;-0,3480;-0,0028;32,06011578;34,79517866;0,00000000;
5,1780;0,9302;0,0281;0,0147;-0,0646;-0,0004;0,1482;-0,0078;-0,3480;-0,0028;32,06011578;34,79517866;0,00000000;
5,1790;0,9268;0,0320;-0,0146;-0,0646;-0,0004;0,1482;-0,0078;-0,3480;-0,0028;32,06011578;34,79517866;0,00000000;
5,1790;0,9278;0,0320;-0,0239;-0,0646;-0,0004;0,1482;-0,0078;-0,3480;-0,0028;32,06011578;34,79517866;0,00000000;
5,2160;0,9278;0,0320;-0,0239;-0,0646;-0,0004;0,1482;0,0274;-0,5600;-0,0086;32,06011578;34,79517866;0,00000000;
5,2170;0,9278;0,0320;-0,0239;-0,0524;-0,0029;0,3127;0,0274;-0,5600;-0,0086;32,06011578;34,79517866;0,00000000;
5,2550;0,9278;0,0320;-0,0239;-0,0524;-0,0029;0,3127;0,1360;-0,6052;-0,0102;32,06011578;34,79517866;0,00000000;
5,2560;0,9278;0,0320;-0,0239;-0,0432;-0,0151;0,3000;0,1360;-0,6052;-0,0102;32,06011578;34,79517866;0,00000000;
5,2580;0,9312;0,0247;-0,0215;-0,0432;-0,0151;0,3000;0,1360;-0,6052;-0,0102;32,06011578;34,79517866;0,00000000;
5,2580;0,9229;0,0340;-0,0566;-0,0432;-0,0151;0,3000;0,1360;-0,6052;-0,0102;32,06011578;34,79517866;0,00000000;
5,2590;0,9199;0,0374;-0,0703;-0,0432;-0,0151;0,3000;0,1360;-0,6052;-0,0102;32,06011578;34,79517866;0,00000000;
5,2590;0,9283;0,0232;-0,0762;-0,0432;-0,0151;0,3000;0,1360;-0,6052;-0,0102;32,06011578;34,79517866;0,00000000;
5,2950;0,9283;0,0232;-0,0762;-0,0432;-0,0151;0,3000;0,1398;-0,6223;-0,0134;32,06011578;34,79517866;0,00000000;
5,2960;0,9283;0,0232;-0,0762;-0,0746;0,0025;0,0581;0,1398;-0,6223;-0,0134;32,06011578;34,79517866;0,00000000;
5,3340;0,9283;0,0232;-0,0762;-0,0746;0,0025;0,0581;0,2655;-0,2979;-0,0443;32,06011578;34,79517866;0,00000000;
5,3350;0,9283;0,0232;-0,0762;-0,0748;-0,0412;-0,4209;0,2655;-0,2979;-0,0443;32,06011578;34,79517866;0,00000000;
5,3360;0,9224;0,0281;-0,1074;-0,0748;-0,0412;-0,4209;0,2655;-0,2979;-0,0443;32,06011578;34,79517866;0,00000000;
5,3370;0,9239;0,0252;-0,1436;-0,0748;-0,0412;-0,4209;0,2655;-0,2979;-0,0443;32,06011578;34,79517866;0,00000000;
5,3370;0,9214;0,0301;-0,1348;-0,0748;-0,0412;-0,4209;0,2655;-0,2979;-0,0443;32,06011578;34,79517866;0,00000000;
5,3380;0,9199;0,0379;-0,1324;-0,0748;-0,0412;-0,4209;0,2655;-0,2979;-0,0443;32,06011578;34,79517866;0,00000000;
5,3750;0,9199;0,0379;-0,1324;-0,0748;-0,0412;-0,4209;0,2378;-0,0854;-0,0331;32,06011578;34,79517866;0,00000000;
5,3760;0,9199;0,0379;-0,1324;-0,0703;-0,0443;-0,3807;0,2378;-0,0854;-0,0331;32,06011578;34,79517866;0,00000000;
5,4130;0,9199;0,0379;-0,1324;-0,0703;-0,0443;-0,3807;0,1073;0,0041;-0,0033;32,06011578;34,79517866;0,00000000;
5,4140;0,9199;0,0379;-0,1324;-0,1116;0,0500;-0,4749;0,1073;0,0041;-0,0033;32,06011578;34,79517866;0,00000000;
5,4150;0,9190;0,0355;-0,1382;-0,1116;0,0500;-0,4749;0,1073;0,0041;-0,0033;32,06011578;34,79517866;0,00000000;
5,4160;0,9156;0,0384;-0,1465;-0,1116;0,0500;-0,4749;0,1073;0,0041;-0,0033;32,06011578;34,79517866;0,00000000;
5,4160;0,9273;0,0213;-0,1470;-0,1116;0,0500;-0,4749;0,1073;0,0041;-0,0033;32,06011578;34,79517866;0,00000000;
5,4170;0,9214;0,0320;-0,1338;-0,1116;0,0500;-0,4749;0,1073;0,0041;-0,0033;32,06011578;34,79517866;0,00000000;
5,4540;0,9214;0,0320;-0,1338;-0,1116;0,0500;-0,4749;-0,0110;0,0872;-0,0028;32,06011578;34,79517866;0,00000000;
5,4550;0,9214;0,0320;-0,1338;-0,1127;0,0478;-0,4980;-0,0110;0,0872;-0,0028;32,06011578;34,79517866;0,00000000;
5,4920;0,9214;0,0320;-0,1338;-0,1127;0,0478;-0,4980;-0,1787;0,0052;0,0074;32,06011578;34,79517866;0,00000000;
5,4940;0,9214;0,0320;-0,1338;-0,0797;-0,0160;-0,4420;-0,1787;0,0052;0,0074;32,06011578;34,79517866;0,00000000;
5,4940;0,9156;0,0399;-0,1202;-0,0797;-0,0160;-0,4420;-0,1787;0,0052;0,0074;32,06011578;34,79517866;0,00000000;
5,4950;0,9263;0,0286;-0,1231;-0,0797;-0,0160;-0,4420;-0,1787;0,0052;0,0074;32,06011578;34,79517866;0,00000000;
5,4960;0,9239;0,0296;-0,1216;-0,0797;-0,0160;-0,4420;-0,1787;0,0052;0,0074;32,06011578;34,79517866;0,00000000;
5,4970;0,9170;0,0374;-0,1182;-0,0797;-0,0160;-0,4420;-0,1787;0,0052;0,0074;32,06011578;34,79517866;0,00000000;
5,5330;0,9170;0,0374;-0,1182;-0,0797;-0,0160;-0,4420;-0,2075;-0,0081;0,0212;32,06011578;34,79517866;0,00000000;
5,5350;0,9170;0,0374;-0,1182;-0,0689;-0,0074;-0,3119;-0,2075;-0,0081;0,0212;32,06011578;34,79517866;0,00000000;
5,5720;0,9170;0,0374;-0,1182;-0,0689;-0,0074;-0,3119;-0,2890;-0,2111;0,0430;32,06011578;34,79517866;0,00000000;
5,5740;0,9219;0,0340;-0,1055;-0,0689;-0,0074;-0,3119;-0,2890;-0,2111;0,0430;32,06011578;34,79517866;0,00000000;
5,5760;0,9234;0,0350;-0,1006;-0,0689;-0,0074;-0,3119;-0,2890;-0,2111;0,0430;32,06011578;34,79517866;0,00000000;
5,5760;0,9209;0,0389;-0,0987;-0,0689;-0,0074;-0,3119;-0,2890;-0,2111;0,0430;32,06011578;34,79517866;0,00000000;
5,5770;0,9195;0,0325;-0,1143;-0,0689;-0,0074;-0,3119;-0,2890;-0,2111;0,0430;32,06011578;34,79517866;0,00000000;
5,5780;0,9195;0,0325;-0,1143;-0,0640;0,0371;-0,0486;-0,2890;-0,2111;0,0430;32,06011578;34,79517866;0,00000000;
5,6130;0,9195;0,0325;-0,1143;-0,0640;0,0371;-0,0486;-0,3268;-0,4012;0,0473;32,06011578;34,79517866;0,00000000;
5,6150;0,9195;0,0325;-0,1143;-0,0476;0,0403;0,0902;-0,3268;-0,4012;0,0473;32,06011578;34,79517866;0,00000000;
5,6510;0,9195;0,0325;-0,1143;-0,0476;0,0403;0,0902;-0,1457;-0,3315;0,0153;32,06011578;34,79517866;0,00000000;
5,6540;0,9195;0,0325;-0,1143;-0,0306;-0,0383;-0,0015;-0,1457;-0,3315;0,0153;32,06011578;34,79517866;0,00000000;
5,6560;0,9307;0,0164;-0,1309;-0,0306;-0,0383;-0,0015;-0,1457;-0,3315;0,0153;32,06011578;34,79517866;0,00000000;
5,6570;0,9165;0,0350;-0,1236;-0,0306;-0,0383;-0,0015;-0,1457;-0,3315;0,0153;32,06011578;34,79517866;0,00000000;
5,6580;0,9204;0,0335;-0,1275;-0,0306;-0,0383;-0,0015;-0,1457;-0,3315;0,0153;32,06011578;34,79517866;0,00000000;
5,6600;0,9195;0,0306;-0,1456;-0,0306;-0,0383;-0,0015;-0,1457;-0,3315;0,0153;32,06011578;34,79517866;0,00000000;
5,6930;0,9195;0,0306;-0,1456;-0,0152;-0,0367;0,1060;-0,1457;-0,3315;0,0153;32,06011578;34,79517866;0,00000000;
5,6960;0,9195;0,0306;-0,1456;-0,0152;-0,0367;0,1060;-0,0200;-0,3054;0,0052;32,06011578;34,79517866;0,00000000;
5,7310;0,9195;0,0306;-0,1456;-0,0152;-0,0367;0,1060;0,0061;-0,2377;-0,0001;32,06011578;34,79517866;0,00000000;
5,7330;0,9195;0,0306;-0,1456;-0,0339;0,0018;-0,0333;0,0061;-0,2377;-0,0001;32,06011578;34,79517866;0,00000000;
5,7350;0,9170;0,0316;-0,1646;-0,0339;0,0018;-0,0333;0,0061;-0,2377;-0,0001;32,06011578;34,79517866;0,00000000;
5,7370;0,9146;0,0306;-0,1754;-0,0339;0,0018;-0,0333;0,0061;-0,2377;-0,0001;32,06011578;34,79517866;0,00000000;
5,7390;0,9156;0,0301;-0,1788;-0,0339;0,0018;-0,0333;0,0061;-0,2377;-0,0001;32,06011578;34,79517866;0,00000000;
5,7400;0,9131;0,0325;-0,1837;-0,0339;0,0018;-0,0333;0,0061;-0,2377;-0,0001;32,06011578;34,79517866;0,00000000;
5,7720;0,9131;0,0325;-0,1837;-0,0339;0,0018;-0,0333;-0,0003;-0,1738;-0,0001;32,06011578;34,79517866;0,00000000;
5,7740;0,9131;0,0325;-0,1837;-0,0676;-0,0061;-0,2934;-0,0003;-0,1738;-0,0001;32,06011578;34,79517866;0,00000000;
5,8110;0,9131;0,0325;-0,1837;-0,0676;-0,0061;-0,2934;0,0034;-0,1339;-0,0028;32,06011578;34,79517866;0,00000000;
5,8140;0,9131;0,0325;-0,1837;-0,0728;-0,0005;-0,3073;0,0034;-0,1339;-0,0028;32,06011578;34,79517866;0,00000000;
5,8160;0,9136;0,0340;-0,1817;-0,0728;-0,0005;-0,3073;0,0034;-0,1339;-0,0028;32,06011578;34,79517866;0,00000000;
5,8170;0,9131;0,0306;-0,1871;-0,0728;-0,0005;-0,3073;0,0034;-0,1339;-0,0028;32,06011578;34,79517866;0,00000000;
5,8190;0,9121;0,0306;-0,1895;-0,0728;-0,0005;-0,3073;0,0034;-0,1339;-0,0028;32,06011578;34,79517866;0,00000000;
5,8200;0,9126;0,0325;-0,1925;-0,0728;-0,0005;-0,3073;0,0034;-0,1339;-0,0028;32,06011578;34,79517866;0,00000000;
5,8510;0,9126;0,0325;-0,1925;-0,0728;-0,0005;-0,3073;0,0082;-0,0928;-0,0038;32,06011578;34,79517866;0,00000000;
5,8530;0,9126;0,0325;-0,1925;-0,0660;-0,0014;-0,2695;0,0082;-0,0928;-0,0038;32,06011578;34,79517866;0,00000000;
5,8890;0,9126;0,0325;-0,1925;-0,0660;-0,0014;-0,2695;-0,0035;-0,0944;-0,0006;32,06011578;34,79517866;0,00000000;
5,8910;0,9126;0,0325;-0,1925;-0,0716;0,0108;-0,2680;-0,0035;-0,0944;-0,0006;32,06011578;34,79517866;0,00000000;
5,8920;0,9112;0,0335;-0,1876;-0,0716;0,0108;-0,2680;-0,0035;-0,0944;-0,0006;32,06011578;34,79517866;0,00000000;
5,8930;0,9112;0,0330;-0,1895;-0,0716;0,0108;-0,2680;-0,0035;-0,0944;-0,0006;32,06011578;34,79517866;0,00000000;
5,8940;0,9107;0,0325;-0,1930;-0,0716;0,0108;-0,2680;-0,0035;-0,0944;-0,0006;32,06011578;34,79517866;0,00000000;
5,8960;0,9107;0,0316;-0,1930;-0,0716;0,0108;-0,2680;-0,0035;-0,0944;-0,0006;32,06011578;34,79517866;0,00000000;
5,9300;0,9107;0,0316;-0,1930;-0,0716;0,0108;-0,2680;-0,0046;-0,0955;0,0010;32,06011578;34,79517866;0,00000000;
5,9320;0,9107;0,0316;-0,1930;-0,0645;0,0106;-0,2301;-0,0046;-0,0955;0,0010;32,06011578;34,79517866;0,00000000;
5,9680;0,9107;0,0316;-0,1930;-0,0645;0,0106;-0,2301;0,0050;-0,0433;-0,0012;32,06011578;34,79517866;0,00000000;
5,9700;0,9107;0,0316;-0,1930;-0,0669;0,0025;-0,2534;0,0050;-0,0433;-0,0012;32,06011578;34,79517866;0,00000000;
5,9720;0,9116;0,0325;-0,1969;-0,0669;0,0025;-0,2534;0,0050;-0,0433;-0,0012;32,06011578;34,79517866;0,00000000;
5,9730;0,9112;0,0306;-0,2061;-0,0669;0,0025;-0,2534;0,0050;-0,0433;-0,0012;32,06011578;34,79517866;0,00000000;
5,9750;0,9107;0,0316;-0,1993;-0,0669;0,0025;-0,2534;0,0050;-0,0433;-0,0012;32,06011578;34,79517866;0,00000000;
5,9760;0,9107;0,0325;-0,2061;-0,0669;0,0025;-0,2534;0,0050;-0,0433;-0,0012;32,06011578;34,79517866;0,00000000;
6,0090;0,9107;0,0325;-0,2061;-0,0669;0,0025;-0,2534;0,0114;0,0179;-0,0033;32,06011578;34,79517866;0,00000000;
6,0130;0,9107;0,0325;-0,2061;-0,0619;-0,0038;-0,3145;0,0114;0,0179;-0,0033;32,06011578;34,79517866;0,00000000;
6,0470;0,9107;0,0325;-0,2061;-0,0692;0,0075;-0,2863;0,0114;0,0179;-0,0033;32,06011578;34,79517866;0,00000000;
6,0510;0,9107;0,0325;-0,2061;-0,0692;0,0075;-0,2863;0,0045;0,0483;-0,0022;32,06011578;34,79517866;0,00000000;
6,0540;0,9092;0,0325;-0,2061;-0,0692;0,0075;-0,2863;0,0045;0,0483;-0,0022;32,06011578;34,79517866;0,00000000;
6,0560;0,9097;0,0325;-0,2018;-0,0692;0,0075;-0,2863;0,0045;0,0483;-0,0022;32,06011578;34,79517866;0,00000000;
6,0580;0,9097;0,0335;-0,2008;-0,0692;0,0075;-0,2863;0,0045;0,0483;-0,0022;32,06011578;34,79517866;0,00000000;
6,0590;0,9097;0,0335;-0,1988;-0,0692;0,0075;-0,2863;0,0045;0,0483;-0,0022;32,06011578;34,79517866;0,00000000;
6,0900;0,9097;0,0335;-0,1988;-0,0692;0,0075;-0,2863;-0,0088;0,0419;0,0020;32,06011578;34,79517866;0,00000000;
6,0930;0,9097;0,0335;-0,1988;-0,0640;0,0068;-0,2678;-0,0088;0,0419;0,0020;32,06011578;34,79517866;0,00000000;
6,1270;0,9097;0,0335;-0,1988;-0,0640;0,0068;-0,2678;-0,0035;0,0701;0,0010;32,06011578;34,79517866;0,00000000;
6,1290;0,9097;0,0335;-0,1988;-0,0555;0,0090;-0,2050;-0,0035;0,0701;0,0010;32,06011578;34,79517866;0,00000000;
6,1310;0,9107;0,0340;-0,1939;-0,0555;0,0090;-0,2050;-0,0035;0,0701;0,0010;32,06011578;34,79517866;0,00000000;
6,1330;0,9102;0,0320;-0,1969;-0,0555;0,0090;-0,2050;-0,0035;0,0701;0,0010;32,06011578;34,79517866;0,00000000;
6,1350;0,9126;0,0311;-0,1988;-0,0555;0,0090;-0,2050;-0,0035;0,0701;0,0010;32,06011578;34,79517866;0,00000000;
6,1360;0,9121;0,0325;-0,1881;-0,0555;0,0090;-0,2050;-0,0035;0,0701;0,0010;32,06011578;34,79517866;0,00000000;
6,1680;0,9121;0,0325;-0,1881;-0,0555;0,0090;-0,2050;0,0050;0,0989;-0,0017;32,06011578;34,79517866;0,00000000;
6,1710;0,9121;0,0325;-0,1881;-0,0552;0,0077;-0,2134;0,0050;0,0989;-0,0017;32,06011578;34,79517866;0,00000000;
6,2060;0,9121;0,0325;-0,1881;-0,0552;0,0077;-0,2134;0,0023;0,0686;-0,0006;32,06011578;34,79517866;0,00000000;
6,2090;0,9121;0,0325;-0,1881;-0,0347;0,0026;-0,1617;0,0023;0,0686;-0,0006;32,06011578;34,79517866;0,00000000;
6,2110;0,9121;0,0345;-0,1856;-0,0347;0,0026;-0,1617;0,0023;0,0686;-0,0006;32,06011578;34,79517866;0,00000000;
6,2120;0,9136;0,0325;-0,1856;-0,0347;0,0026;-0,1617;0,0023;0,0686;-0,0006;32,06011578;34,79517866;0,00000000;
6,2130;0,9131;0,0335;-0,1803;-0,0347;0,0026;-0,1617;0,0023;0,0686;-0,0006;32,06011578;34,79517866;0,00000000;
6,2140;0,9136;0,0316;-0,1798;-0,0347;0,0026;-0,1617;0,0023;0,0686;-0,0006;32,06011578;34,79517866;0,00000000;
6,2470;0,9136;0,0316;-0,1798;-0,0347;0,0026;-0,1617;-0,0003;0,0361;0,0004;32,06011578;34,79517866;0,00000000;
6,2490;0,9136;0,0316;-0,1798;-0,0231;0,0010;-0,0771;-0,0003;0,0361;0,0004;32,06011578;34,79517866;0,00000000;
6,2880;0,9136;0,0316;-0,1798;-0,0231;0,0010;-0,0771;-0,0008;0,0526;-0,0006;32,06011578;34,79517866;0,00000000;
6,2910;0,9136;0,0316;-0,1798;-0,0265;-0,0022;-0,1234;-0,0008;0,0526;-0,0006;32,06011578;34,79517866;0,00000000;
6,2930;0,9126;0,0320;-0,1851;-0,0265;-0,0022;-0,1234;-0,0008;0,0526;-0,0006;32,06011578;34,79517866;0,00000000;
6,2940;0,9131;0,0325;-0,1895;-0,0265;-0,0022;-0,1234;-0,0008;0,0526;-0,0006;32,06011578;34,79517866;0,00000000;
6,2960;0,9136;0,0320;-0,1842;-0,0265;-0,0022;-0,1234;-0,0008;0,0526;-0,0006;32,06011578;34,79517866;0,00000000;
6,2970;0,9121;0,0320;-0,1744;-0,0265;-0,0022;-0,1234;-0,0008;0,0526;-0,0006;32,06011578;34,79517866;0,00000000;
6,3260;0,9121;0,0320;-0,1744;-0,0265;-0,0022;-0,1234;-0,0014;0,0467;-0,0017;32,06011578;34,79517866;0,00000000;
6,3280;0,9121;0,0320;-0,1744;-0,0263;-0,0026;-0,1245;-0,0014;0,0467;-0,0017;32,06011578;34,79517866;0,00000000;
6,3640;0,9121;0,0320;-0,1744;-0,0263;-0,0026;-0,1245;-0,0003;0,0270;-0,0017;32,06011578;34,79517866;0,00000000;
6,3670;0,9121;0,0320;-0,1744;-0,0207;-0,0057;-0,0383;-0,0003;0,0270;-0,0017;32,06011578;34,79517866;0,00000000;
6,3690;0,9141;0,0325;-0,1759;-0,0207;-0,0057;-0,0383;-0,0003;0,0270;-0,0017;32,06011578;34,79517866;0,00000000;
6,3700;0,9146;0,0311;-0,1807;-0,0207;-0,0057;-0,0383;-0,0003;0,0270;-0,0017;32,06011578;34,79517866;0,00000000;
6,3720;0,9156;0,0306;-0,1793;-0,0207;-0,0057;-0,0383;-0,0003;0,0270;-0,0017;32,06011578;34,79517866;0,00000000;
6,3730;0,9146;0,0320;-0,1734;-0,0207;-0,0057;-0,0383;-0,0003;0,0270;-0,0017;32,06011578;34,79517866;0,00000000;
6,4050;0,9146;0,0320;-0,1734;-0,0207;-0,0057;-0,0383;0,0023;0,0105;-0,0006;32,06011578;34,79517866;0,00000000;
6,4080;0,9146;0,0320;-0,1734;-0,0191;-0,0051;-0,0373;0,0023;0,0105;-0,0006;32,06011578;34,79517866;0,00000000;
6,4430;0,9146;0,0320;-0,1734;-0,0191;-0,0051;-0,0373;-0,0046;-0,0795;0,0010;32,06011578;34,79517866;0,00000000;
6,4470;0,9146;0,0320;-0,1734;-0,0022;-0,0017;0,0301;-0,0046;-0,0795;0,0010;32,06011578;34,79517866;0,00000000;
6,4480;0,9141;0,0340;-0,1651;-0,0022;-0,0017;0,0301;-0,0046;-0,0795;0,0010;32,06011578;34,79517866;0,00000000;
6,4500;0,9136;0,0335;-0,1724;-0,0022;-0,0017;0,0301;-0,0046;-0,0795;0,0010;32,06011578;34,79517866;0,00000000;
6,4510;0,9141;0,0325;-0,1754;-0,0022;-0,0017;0,0301;-0,0046;-0,0795;0,0010;32,06011578;34,79517866;0,00000000;
6,4530;0,9121;0,0320;-0,1827;-0,0022;-0,0017;0,0301;-0,0046;-0,0795;0,0010;32,06011578;34,79517866;0,00000000;
6,4850;0,9121;0,0320;-0,1827;-0,0022;-0,0017;0,0301;-0,0035;-0,1296;-0,0006;32,06011578;34,79517866;0,00000000;
6,4880;0,9121;0,0320;-0,1827;-0,0068;0,0023;0,0308;-0,0035;-0,1296;-0,0006;32,06011578;34,79517866;0,00000000;
6,5230;0,9121;0,0320;-0,1827;-0,0068;0,0023;0,0308;0,0040;-0,1876;-0,0038;32,06011578;34,79517866;0,00000000;
6,5270;0,9121;0,0320;-0,1827;0,0002;0,0068;0,0922;0,0040;-0,1876;-0,0038;32,06011578;34,79517866;0,00000000;
6,5280;0,9131;0,0330;-0,1788;0,0002;0,0068;0,0922;0,0040;-0,1876;-0,0038;32,06011578;34,79517866;0,00000000;
6,5290;0,9141;0,0335;-0,1739;0,0002;0,0068;0,0922;0,0040;-0,1876;-0,0038;32,06011578;34,79517866;0,00000000;
6,5310;0,9107;0,0335;-0,1759;0,0002;0,0068;0,0922;0,0040;-0,1876;-0,0038;32,06011578;34,79517866;0,00000000;
6,5320;0,9116;0,0325;-0,1803;0,0002;0,0068;0,0922;0,0040;-0,1876;-0,0038;32,06011578;34,79517866;0,00000000;
6,5640;0,9116;0,0325;-0,1803;0,0002;0,0068;0,0922;-0,0003;-0,3192;-0,0017;32,06011578;34,79517866;0,00000000;
6,5670;0,9116;0,0325;-0,1803;0,0213;0,0055;0,1823;-0,0003;-0,3192;-0,0017;32,06011578;34,79517866;0,00000000;
6,6010;0,9116;0,0325;-0,1803;0,0213;0,0055;0,1823;-0,0003;-0,4944;-0,0001;32,06011578;34,79517866;0,00000000;
6,6030;0,9116;0,0325;-0,1803;0,0309;0,0048;0,2574;-0,0003;-0,4944;-0,0001;32,06011578;34,79517866;0,00000000;
6,6040;0,9112;0,0340;-0,1807;0,0309;0,0048;0,2574;-0,0003;-0,4944;-0,0001;32,06011578;34,79517866;0,00000000;
6,6060;0,9072;0,0335;-0,1881;0,0309;0,0048;0,2574;-0,0003;-0,4944;-0,0001;32,06011578;34,79517866;0,00000000;
6,6060;0,9053;0,0330;-0,2022;0,0309;0,0048;0,2574;-0,0003;-0,4944;-0,0001;32,06011578;34,79517866;0,00000000;
6,6070;0,9033;0,0320;-0,2115;0,0309;0,0048;0,2574;-0,0003;-0,4944;-0,0001;32,06011578;34,79517866;0,00000000;
6,6410;0,9033;0,0320;-0,2115;0,0309;0,0048;0,2574;0,0045;-0,6585;-0,0028;32,06011578;34,79517866;0,00000000;
6,6430;0,9033;0,0320;-0,2115;0,0777;0,0038;0,4341;0,0045;-0,6585;-0,0028;32,06011578;34,79517866;0,00000000;
6,6810;0,9033;0,0320;-0,2115;0,0777;0,0038;0,4341;0,0093;-0,8497;-0,0054;32,06011578;34,79517866;0,00000000;
6,6840;0,9033;0,0320;-0,2115;0,0845;-0,0052;0,4373;0,0093;-0,8497;-0,0054;32,06011578;34,79517866;0,00000000;
6,6870;0,8994;0,0325;-0,2228;0,0845;-0,0052;0,4373;0,0093;-0,8497;-0,0054;32,06011578;34,79517866;0,00000000;
6,6880;0,8955;0,0320;-0,2306;0,0845;-0,0052;0,4373;0,0093;-0,8497;-0,0054;32,06011578;34,79517866;0,00000000;
6,6900;0,8911;0,0330;-0,2462;0,0845;-0,0052;0,4373;0,0093;-0,8497;-0,0054;32,06011578;34,79517866;0,00000000;
6,6910;0,8838;0,0340;-0,2838;0,0845;-0,0052;0,4373;0,0093;-0,8497;-0,0054;32,06011578;34,79517866;0,00000000;
6,7220;0,8838;0,0340;-0,2838;0,0845;-0,0052;0,4373;0,0279;-0,9786;-0,0113;32,06011578;34,79517866;0,00000000;
6,7250;0,8838;0,0340;-0,2838;0,0647;-0,0013;0,3635;0,0279;-0,9786;-0,0113;32,06011578;34,79517866;0,00000000;
6,7610;0,8838;0,0340;-0,2838;0,0054;0,0031;0,0571;0,0279;-0,9786;-0,0113;32,06011578;34,79517866;0,00000000;
6,7640;0,8838;0,0340;-0,2838;0,0054;0,0031;0,0571;0,0258;-1,0244;-0,0102;32,06011578;34,79517866;0,00000000;
6,7660;0,8799;0,0311;-0,2946;0,0054;0,0031;0,0571;0,0258;-1,0244;-0,0102;32,06011578;34,79517866;0,00000000;
6,7680;0,8711;0,0345;-0,3229;0,0054;0,0031;0,0571;0,0258;-1,0244;-0,0102;32,06011578;34,79517866;0,00000000;
6,7700;0,8638;0,0350;-0,3434;0,0054;0,0031;0,0571;0,0258;-1,0244;-0,0102;32,06011578;34,79517866;0,00000000;
6,7710;0,8574;0,0364;-0,3449;0,0054;0,0031;0,0571;0,0258;-1,0244;-0,0102;32,06011578;34,79517866;0,00000000;
6,8010;0,8574;0,0364;-0,3449;0,0054;0,0031;0,0571;-0,0056;-1,1554;0,0010;32,06011578;34,79517866;0,00000000;
6,8030;0,8574;0,0364;-0,3449;0,1579;0,0026;0,4369;-0,0056;-1,1554;0,0010;32,06011578;34,79517866;0,00000000;
6,8410;0,8574;0,0364;-0,3449;0,1579;0,0026;0,4369;-0,0024;-1,2785;-0,0054;32,06011578;34,79517866;0,00000000;
6,8440;0,8574;0,0364;-0,3449;0,1320;-0,0059;0,3652;-0,0024;-1,2785;-0,0054;32,06011578;34,79517866;0,00000000;
6,8460;0,8506;0,0316;-0,3605;0,1320;-0,0059;0,3652;-0,0024;-1,2785;-0,0054;32,06011578;34,79517866;0,00000000;
6,8480;0,8408;0,0306;-0,4040;0,1320;-0,0059;0,3652;-0,0024;-1,2785;-0,0054;32,06011578;34,79517866;0,00000000;
6,8490;0,8296;0,0325;-0,4348;0,1320;-0,0059;0,3652;-0,0024;-1,2785;-0,0054;32,06011578;34,79517866;0,00000000;
6,8510;0,8173;0,0355;-0,4221;0,1320;-0,0059;0,3652;-0,0024;-1,2785;-0,0054;32,06011578;34,79517866;0,00000000;
6,8790;0,8173;0,0355;-0,4221;0,1320;-0,0059;0,3652;-0,0206;-1,4676;0,0042;32,06011578;34,79517866;0,00000000;
6,8810;0,8173;0,0355;-0,4221;0,3711;-0,0079;0,8200;-0,0206;-1,4676;0,0042;32,06011578;34,79517866;0,00000000;
6,9180;0,8173;0,0355;-0,4221;0,3711;-0,0079;0,8200;-0,2309;-1,9491;0,1171;32,06011578;34,79517866;0,00000000;
6,9210;0,8173;0,0355;-0,4221;0,4003;0,0239;0,8789;-0,2309;-1,9491;0,1171;32,06011578;34,79517866;0,00000000;
6,9220;0,8012;0,0428;-0,4128;0,4003;0,0239;0,8789;-0,2309;-1,9491;0,1171;32,06011578;34,79517866;0,00000000;
6,9220;0,7538;0,0682;-0,5174;0,4003;0,0239;0,8789;-0,2309;-1,9491;0,1171;32,06011578;34,79517866;0,00000000;
6,9230;0,7783;0,0218;-0,5242;0,4003;0,0239;0,8789;-0,2309;-1,9491;0,1171;32,06011578;34,79517866;0,00000000;
6,9240;0,7655;0,0071;-0,5404;0,4003;0,0239;0,8789;-0,2309;-1,9491;0,1171;32,06011578;34,79517866;0,00000000;
6,9590;0,7655;0,0071;-0,5404;0,4003;0,0239;0,8789;-0,1516;-2,1275;0,0537;32,06011578;34,79517866;0,00000000;
6,9620;0,7655;0,0071;-0,5404;0,3517;-0,0363;0,4701;-0,1516;-2,1275;0,0537;32,06011578;34,79517866;0,00000000;
6,9990;0,7655;0,0071;-0,5404;0,0975;0,0306;0,0901;-0,1516;-2,1275;0,0537;32,06011578;34,79517866;0,00000000;
7,0010;0,7655;0,0071;-0,5404;0,0975;0,0306;0,0901;0,0316;-2,1706;-0,0161;32,06011578;34,79517866;0,00000000;
7,0020;0,7177;0,0350;-0,5526;0,0975;0,0306;0,0901;0,0316;-2,1706;-0,0161;32,06011578;34,79517866;0,00000000;
7,0050;0,6903;0,0433;-0,5956;0,0975;0,0306;0,0901;0,0316;-2,1706;-0,0161;32,06011578;34,79517866;0,00000000;
7,0060;0,6561;0,0384;-0,7314;0,0975;0,0306;0,0901;0,0316;-2,1706;-0,0161;32,06011578;34,79517866;0,00000000;
7,0070;0,6312;0,0384;-0,7431;0,0975;0,0306;0,0901;0,0316;-2,1706;-0,0161;32,06011578;34,79517866;0,00000000;
7,0390;0,6312;0,0384;-0,7431;0,0975;0,0306;0,0901;0,0349;-1,8436;-0,0076;32,06011578;34,79517866;0,00000000;
7,0420;0,6312;0,0384;-0,7431;0,5604;0,0369;0,5495;0,0349;-1,8436;-0,0076;32,06011578;34,79517866;0,00000000;
7,0780;0,6312;0,0384;-0,7431;0,5604;0,0369;0,5495;0,0274;-1,5288;-0,0214;32,06011578;34,79517866;0,00000000;
7,0810;0,6312;0,0384;-0,7431;0,2197;0,0199;-0,3622;0,0274;-1,5288;-0,0214;32,06011578;34,79517866;0,00000000;
7,0820;0,6131;0,0364;-0,7373;0,2197;0,0199;-0,3622;0,0274;-1,5288;-0,0214;32,06011578;34,79517866;0,00000000;
7,0840;0,5892;0,0360;-0,7910;0,2197;0,0199;-0,3622;0,0274;-1,5288;-0,0214;32,06011578;34,79517866;0,00000000;
7,0860;0,5711;0,0320;-0,8194;0,2197;0,0199;-0,3622;0,0274;-1,5288;-0,0214;32,06011578;34,79517866;0,00000000;
7,0870;0,5442;0,0355;-0,8482;0,2197;0,0199;-0,3622;0,0274;-1,5288;-0,0214;32,06011578;34,79517866;0,00000000;
7,1180;0,5442;0,0355;-0,8482;0,2197;0,0199;-0,3622;0,0263;-1,0702;-0,0390;32,06011578;34,79517866;0,00000000;
7,1210;0,5442;0,0355;-0,8482;0,5156;0,0184;-0,1218;0,0263;-1,0702;-0,0390;32,06011578;34,79517866;0,00000000;
7,1570;0,5442;0,0355;-0,8482;0,1476;0,0131;-0,7402;0,0263;-1,0702;-0,0390;32,06011578;34,79517866;0,00000000;
7,1600;0,5442;0,0355;-0,8482;0,1476;0,0131;-0,7402;-0,0040;-0,9264;0,0047;32,06011578;34,79517866;0,00000000;
7,1610;0,5232;0,0418;-0,8570;0,1476;0,0131;-0,7402;-0,0040;-0,9264;0,0047;32,06011578;34,79517866;0,00000000;
7,1630;0,5198;0,0443;-0,8154;0,1476;0,0131;-0,7402;-0,0040;-0,9264;0,0047;32,06011578;34,79517866;0,00000000;
7,1640;0,5149;0,0438;-0,7617;0,1476;0,0131;-0,7402;-0,0040;-0,9264;0,0047;32,06011578;34,79517866;0,00000000;
7,1660;0,4944;0,0389;-0,7754;0,1476;0,0131;-0,7402;-0,0040;-0,9264;0,0047;32,06011578;34,79517866;0,00000000;
7,1970;0,4944;0,0389;-0,7754;0,1476;0,0131;-0,7402;-0,0030;-1,4697;0,0185;32,06011578;34,79517866;0,00000000;
7,1980;0,4944;0,0389;-0,7754;0,2315;0,0721;0,1099;-0,0030;-1,4697;0,0185;32,06011578;34,79517866;0,00000000;
7,2360;0,4944;0,0389;-0,7754;0,2315;0,0721;0,1099;0,0093;-1,8122;-0,0086;32,06011578;34,79517866;0,00000000;
7,2390;0,4944;0,0389;-0,7754;0,0828;-0,0093;-0,2209;0,0093;-1,8122;-0,0086;32,06011578;34,79517866;0,00000000;
7,2400;0,4709;0,0335;-0,7979;0,0828;-0,0093;-0,2209;0,0093;-1,8122;-0,0086;32,06011578;34,79517866;0,00000000;
7,2420;0,4343;0,0364;-0,8521;0,0828;-0,0093;-0,2209;0,0093;-1,8122;-0,0086;32,06011578;34,79517866;0,00000000;
7,2430;0,4040;0,0316;-0,9034;0,0828;-0,0093;-0,2209;0,0093;-1,8122;-0,0086;32,06011578;34,79517866;0,00000000;
7,2440;0,3781;0,0291;-0,8951;0,0828;-0,0093;-0,2209;0,0093;-1,8122;-0,0086;32,06011578;34,79517866;0,00000000;
7,2770;0,3781;0,0291;-0,8951;0,0828;-0,0093;-0,2209;0,0370;-1,6961;-0,0773;32,06011578;34,79517866;0,00000000;
7,2790;0,3781;0,0291;-0,8951;0,6274;-0,0089;0,0418;0,0370;-1,6961;-0,0773;32,06011578;34,79517866;0,00000000;
7,3150;0,3781;0,0291;-0,8951;0,6274;-0,0089;0,0418;0,0519;-1,3147;-0,1269;32,06011578;34,79517866;0,00000000;
7,3190;0,3781;0,0291;-0,8951;0,1846;-0,0696;-0,6913;0,0519;-1,3147;-0,1269;32,06011578;34,79517866;0,00000000;
7,3210;0,3527;0,0193;-0,9356;0,1846;-0,0696;-0,6913;0,0519;-1,3147;-0,1269;32,06011578;34,79517866;0,00000000;
7,3220;0,3082;0,0340;-1,0055;0,1846;-0,0696;-0,6913;0,0519;-1,3147;-0,1269;32,06011578;34,79517866;0,00000000;
7,3240;0,2764;0,0521;-0,9899;0,1846;-0,0696;-0,6913;0,0519;-1,3147;-0,1269;32,06011578;34,79517866;0,00000000;
7,3250;0,2672;0,0570;-0,8873;0,1846;-0,0696;-0,6913;0,0519;-1,3147;-0,1269;32,06011578;34,79517866;0,00000000;
7,3550;0,2672;0,0570;-0,8873;0,1846;-0,0696;-0,6913;0,0029;-1,5709;-0,0182;32,06011578;34,79517866;0,00000000;
7,3570;0,2672;0,0570;-0,8873;0,7118;-0,0698;-0,5000;0,0029;-1,5709;-0,0182;32,06011578;34,79517866;0,00000000;
7,3940;0,2672;0,0570;-0,8873;0,7118;-0,0698;-0,5000;-0,0115;-2,9754;0,0164;32,06011578;34,79517866;0,00000000;
7,3970;0,2672;0,0570;-0,8873;0,9875;0,1296;0,4130;-0,0115;-2,9754;0,0164;32,06011578;34,79517866;0,00000000;
7,3990;0,2637;0,0360;-0,7553;0,9875;0,1296;0,4130;-0,0115;-2,9754;0,0164;32,06011578;34,79517866;0,00000000;
7,4020;0,1914;0,0316;-0,7827;0,9875;0,1296;0,4130;-0,0115;-2,9754;0,0164;32,06011578;34,79517866;0,00000000;
7,4040;0,1220;0,0487;-1,0514;0,9875;0,1296;0,4130;-0,0115;-2,9754;0,0164;32,06011578;34,79517866;0,00000000;
7,4050;0,0160;0,0638;-1,0783;0,9875;0,1296;0,4130;-0,0115;-2,9754;0,0164;32,06011578;34,79517866;0,00000000;
7,4340;0,0160;0,0638;-1,0783;0,9875;0,1296;0,4130;-0,0323;-3,0868;0,1277;32,06011578;34,79517866;0,00000000;
7,4360;0,0160;0,0638;-1,0783;0,5265;0,1179;-0,3619;-0,0323;-3,0868;0,1277;32,06011578;34,79517866;0,00000000;
7,4730;0,0160;0,0638;-1,0783;0,5265;0,1179;-0,3619;-0,0621;-1,5229;0,6028;32,06011578;34,79517866;0,00000000;
7,4760;0,0160;0,0638;-1,0783;0,0624;-0,6111;-2,6727;-0,0621;-1,5229;0,6028;32,06011578;34,79517866;0,00000000;
7,4780;-0,0866;0,1048;-0,8677;0,0624;-0,6111;-2,6727;-0,0621;-1,5229;0,6028;32,06011578;34,79517866;0,00000000;
7,4800;-0,1154;-0,0046;-1,4922;0,0624;-0,6111;-2,6727;-0,0621;-1,5229;0,6028;32,06011578;34,79517866;0,00000000;
7,4810;0,2232;-0,1771;-1,2787;0,0624;-0,6111;-2,6727;-0,0621;-1,5229;0,6028;32,06011578;34,79517866;0,00000000;
7,4840;-0,1736;0,0599;-0,8682;0,0624;-0,6111;-2,6727;-0,0621;-1,5229;0,6028;32,06011578;34,79517866;0,00000000;
7,5130;-0,1736;0,0599;-0,8682;0,0624;-0,6111;-2,6727;0,0087;0,3690;0,1378;32,06011578;34,79517866;0,00000000;
7,5150;-0,1736;0,0599;-0,8682;-0,0728;-0,5979;-2,6291;0,0087;0,3690;0,1378;32,06011578;34,79517866;0,00000000;
7,5520;-0,1736;0,0599;-0,8682;-0,0728;-0,5979;-2,6291;0,0167;0,0291;-0,0880;32,06011578;34,79517866;0,00000000;
7,5530;-0,1736;0,0599;-0,8682;-1,2204;0,6622;-0,2968;0,0167;0,0291;-0,0880;32,06011578;34,79517866;0,00000000;
7,5550;-0,1350;0,1850;-1,0412;-1,2204;0,6622;-0,2968;0,0167;0,0291;-0,0880;32,06011578;34,79517866;0,00000000;
7,5560;-0,0250;0,0658;-1,0168;-1,2204;0,6622;-0,2968;0,0167;0,0291;-0,0880;32,06011578;34,79517866;0,00000000;
7,5570;-0,0465;0,0316;-1,0163;-1,2204;0,6622;-0,2968;0,0167;0,0291;-0,0880;32,06011578;34,79517866;0,00000000;
7,5580;-0,0495;0,0404;-1,0080;-1,2204;0,6622;-0,2968;0,0167;0,0291;-0,0880;32,06011578;34,79517866;0,00000000;
7,5940;-0,0495;0,0404;-1,0080;-1,1706;0,6621;-0,2911;0,0167;0,0291;-0,0880;32,06011578;34,79517866;0,00000000;
7,5970;-0,0495;0,0404;-1,0080;-1,1706;0,6621;-0,2911;0,0301;-0,0822;0,0079;32,06011578;34,79517866;0,00000000;
7,6250;-0,0460;0,0443;-1,0026;-1,1706;0,6621;-0,2911;0,0301;-0,0822;0,0079;32,06011578;34,79517866;0,00000000;
7,6270;-0,0514;0,0413;-1,0275;-1,1706;0,6621;-0,2911;0,0301;-0,0822;0,0079;32,06011578;34,79517866;0,00000000;
7,6290;-0,0543;0,0384;-1,0568;-1,1706;0,6621;-0,2911;0,0301;-0,0822;0,0079;32,06011578;34,79517866;0,00000000;
7,6330;-0,0543;0,0384;-1,0568;-1,1706;0,6621;-0,2911;0,0125;-0,0076;0,0052;32,06011578;34,79517866;0,00000000;
7,6340;-0,0543;0,0384;-1,0568;-0,5331;0,0309;-0,6094;0,0125;-0,0076;0,0052;32,06011578;34,79517866;0,00000000;
7,6720;-0,0543;0,0384;-1,0568;-0,5331;0,0309;-0,6094;-0,0136;0,0174;-0,0028;32,06011578;34,79517866;0,00000000;
7,6750;-0,0543;0,0384;-1,0568;-0,5587;0,0458;-0,7439;-0,0136;0,0174;-0,0028;32,06011578;34,79517866;0,00000000;
7,7110;-0,0543;0,0384;-1,0568;-0,5587;0,0458;-0,7439;0,0945;-0,1498;-0,0406;32,06011578;34,79517866;0,00000000;
7,7140;-0,0543;0,0384;-1,0568;-0,4947;0,0792;-0,7300;0,0945;-0,1498;-0,0406;32,06011578;34,79517866;0,00000000;
7,7160;-0,0451;0,0428;-0,9874;-0,4947;0,0792;-0,7300;0,0945;-0,1498;-0,0406;32,06011578;34,79517866;0,00000000;
7,7180;-0,0421;0,0418;-0,9884;-0,4947;0,0792;-0,7300;0,0945;-0,1498;-0,0406;32,06011578;34,79517866;0,00000000;
7,7190;-0,0431;0,0404;-0,9957;-0,4947;0,0792;-0,7300;0,0945;-0,1498;-0,0406;32,06011578;34,79517866;0,00000000;
7,7210;-0,0412;0,0237;-1,0343;-0,4947;0,0792;-0,7300;0,0945;-0,1498;-0,0406;32,06011578;34,79517866;0,00000000;
7,7220;-0,0465;0,0237;-1,0524;-0,4947;0,0792;-0,7300;0,0945;-0,1498;-0,0406;32,06011578;34,79517866;0,00000000;
7,7510;-0,0465;0,0237;-1,0524;-0,4947;0,0792;-0,7300;0,0258;-0,0316;-0,1604;32,06011578;34,79517866;0,00000000;
7,7530;-0,0465;0,0237;-1,0524;-0,3946;0,0339;-0,5464;0,0258;-0,0316;-0,1604;32,06011578;34,79517866;0,00000000;
7,7900;-0,0465;0,0237;-1,0524;-0,3946;0,0339;-0,5464;-0,0024;0,0126;-0,0651;32,06011578;34,79517866;0,00000000;
7,7930;-0,0465;0,0237;-1,0524;-0,6256;0,0576;-0,7084;-0,0024;0,0126;-0,0651;32,06011578;34,79517866;0,00000000;
7,7940;-0,0587;0,0364;-1,0060;-0,6256;0,0576;-0,7084;-0,0024;0,0126;-0,0651;32,06011578;34,79517866;0,00000000;
7,7960;-0,0939;0,0535;-1,0133;-0,6256;0,0576;-0,7084;-0,0024;0,0126;-0,0651;32,06011578;34,79517866;0,00000000;
7,7980;-0,0714;0,0242;-1,0153;-0,6256;0,0576;-0,7084;-0,0024;0,0126;-0,0651;32,06011578;34,79517866;0,00000000;
7,7990;-0,0456;0,0565;-1,0172;-0,6256;0,0576;-0,7084;-0,0024;0,0126;-0,0651;32,06011578;34,79517866;0,00000000;
7,8310;-0,0456;0,0565;-1,0172;-0,6256;0,0576;-0,7084;0,0018;-0,0002;0,0297;32,06011578;34,79517866;0,00000000;
7,8330;-0,0456;0,0565;-1,0172;-0,6155;0,0573;-0,6966;0,0018;-0,0002;0,0297;32,06011578;34,79517866;0,00000000;
7,8700;-0,0456;0,0565;-1,0172;-0,6155;0,0573;-0,6966;0,0008;0,0030;0,0228;32,06011578;34,79517866;0,00000000;
7,8720;-0,0456;0,0565;-1,0172;-0,4703;0,0639;-0,5497;0,0008;0,0030;0,0228;32,06011578;34,79517866;0,00000000;
7,8740;-0,0553;0,0374;-1,0153;-0,4703;0,0639;-0,5497;0,0008;0,0030;0,0228;32,06011578;34,79517866;0,00000000;
7,8760;-0,0548;0,0330;-1,0148;-0,4703;0,0639;-0,5497;0,0008;0,0030;0,0228;32,06011578;34,79517866;0,00000000;
7,8770;-0,0602;0,0335;-1,0153;-0,4703;0,0639;-0,5497;0,0008;0,0030;0,0228;32,06011578;34,79517866;0,00000000;
7,8780;-0,0705;0,0389;-1,0168;-0,4703;0,0639;-0,5497;0,0008;0,0030;0,0228;32,06011578;34,79517866;0,00000000;
7,9090;-0,0705;0,0389;-1,0168;-0,4703;0,0639;-0,5497;0,0023;0,0046;0,0585;32,06011578;34,79517866;0,00000000;
7,9100;-0,0705;0,0389;-1,0168;-0,4586;0,0205;-0,4857;0,0023;0,0046;0,0585;32,06011578;34,79517866;0,00000000;
7,9480;-0,0705;0,0389;-1,0168;-0,4586;0,0205;-0,4857;0,0029;0,0025;0,0196;32,06011578;34,79517866;0,00000000;
7,9510;-0,0705;0,0389;-1,0168;-0,2455;0,0418;-0,4189;0,0029;0,0025;0,0196;32,06011578;34,79517866;0,00000000;
7,9530;-0,0421;0,0350;-1,0153;-0,2455;0,0418;-0,4189;0,0029;0,0025;0,0196;32,06011578;34,79517866;0,00000000;
7,9540;-0,0338;0,0404;-1,0148;-0,2455;0,0418;-0,4189;0,0029;0,0025;0,0196;32,06011578;34,79517866;0,00000000;
7,9550;-0,0534;0,0379;-1,0124;-0,2455;0,0418;-0,4189;0,0029;0,0025;0,0196;32,06011578;34,79517866;0,00000000;
7,9570;-0,0573;0,0345;-1,0143;-0,2455;0,0418;-0,4189;0,0029;0,0025;0,0196;32,06011578;34,79517866;0,00000000;
7,9880;-0,0573;0,0345;-1,0143;-0,2455;0,0418;-0,4189;0,0018;0,0036;-0,0065;32,06011578;34,79517866;0,00000000;
7,9900;-0,0573;0,0345;-1,0143;-0,2194;0,0378;-0,3723;0,0018;0,0036;-0,0065;32,06011578;34,79517866;0,00000000;
8,0290;-0,0573;0,0345;-1,0143;-0,2194;0,0378;-0,3723;0,0023;0,0014;0,0036;32,06011578;34,79517866;0,00000000;
8,0310;-0,0563;0,0360;-1,0163;-0,2194;0,0378;-0,3723;0,0023;0,0014;0,0036;32,06011578;34,79517866;0,00000000;
8,0320;-0,0553;0,0360;-1,0158;-0,2194;0,0378;-0,3723;0,0023;0,0014;0,0036;32,06011578;34,79517866;0,00000000;
8,0360;-0,0543;0,0301;-1,0133;-0,2194;0,0378;-0,3723;0,0023;0,0014;0,0036;32,06011578;34,79517866;0,00000000;
8,0370;-0,0524;0,0418;-1,0163;-0,2194;0,0378;-0,3723;0,0023;0,0014;0,0036;32,06011578;34,79517866;0,00000000;
8,0380;-0,0524;0,0418;-1,0163;-0,3104;0,0145;-0,3423;0,0023;0,0014;0,0036;32,06011578;34,79517866;0,00000000;
8,0680;-0,0524;0,0418;-1,0163;-0,3104;0,0145;-0,3423;-0,0003;0,0025;0,0143;32,06011578;34,79517866;0,00000000;
8,0700;-0,0524;0,0418;-1,0163;-0,2770;0,0127;-0,3042;-0,0003;0,0025;0,0143;32,06011578;34,79517866;0,00000000;
8,1070;-0,0524;0,0418;-1,0163;-0,2770;0,0127;-0,3042;0,0061;0,0164;0,0590;32,06011578;34,79517866;0,00000000;
8,1090;-0,0524;0,0418;-1,0163;-0,2340;0,0270;-0,2674;0,0061;0,0164;0,0590;32,06011578;34,79517866;0,00000000;
8,1110;-0,0558;0,0394;-1,0158;-0,2340;0,0270;-0,2674;0,0061;0,0164;0,0590;32,06011578;34,79517866;0,00000000;
8,1120;-0,0490;0,0252;-1,0153;-0,2340;0,0270;-0,2674;0,0061;0,0164;0,0590;32,06011578;34,79517866;0,00000000;
8,1140;-0,0519;0,0345;-1,0143;-0,2340;0,0270;-0,2674;0,0061;0,0164;0,0590;32,06011578;34,79517866;0,00000000;
8,1150;-0,0617;0,0487;-1,0163;-0,2340;0,0270;-0,2674;0,0061;0,0164;0,0590;32,06011578;34,79517866;0,00000000;
8,1480;-0,0617;0,0487;-1,0163;-0,2340;0,0270;-0,2674;-0,0072;0,0664;0,0585;32,06011578;34,79517866;0,00000000;
8,1500;-0,0617;0,0487;-1,0163;-0,2313;0,0124;-0,2385;-0,0072;0,0664;0,0585;32,06011578;34,79517866;0,00000000;
8,1850;-0,0617;0,0487;-1,0163;-0,2313;0,0124;-0,2385;-0,1047;0,3061;-0,0038;32,06011578;34,79517866;0,00000000;
8,1860;-0,0617;0,0487;-1,0163;-0,2450;-0,0645;-0,2774;-0,1047;0,3061;-0,0038;32,06011578;34,79517866;0,00000000;
8,1880;-0,0602;0,0325;-1,0343;-0,2450;-0,0645;-0,2774;-0,1047;0,3061;-0,0038;32,06011578;34,79517866;0,00000000;
8,1880;-0,0729;0,0252;-1,1291;-0,2450;-0,0645;-0,2774;-0,1047;0,3061;-0,0038;32,06011578;34,79517866;0,00000000;
8,1890;-0,0070;0,0369;-0,9054;-0,2450;-0,0645;-0,2774;-0,1047;0,3061;-0,0038;32,06011578;34,79517866;0,00000000;
8,1900;-0,0377;0,0452;-1,0197;-0,2450;-0,0645;-0,2774;-0,1047;0,3061;-0,0038;32,06011578;34,79517866;0,00000000;
8,2280;-0,0377;0,0452;-1,0197;-0,2915;-0,0448;-0,2448;-0,1047;0,3061;-0,0038;32,06011578;34,79517866;0,00000000;
8,2290;-0,0377;0,0452;-1,0197;-0,2915;-0,0448;-0,2448;0,0349;0,2188;-0,1013;32,06011578;34,79517866;0,00000000;
8,2650;-0,0377;0,0452;-1,0197;-0,2915;-0,0448;-0,2448;0,0151;0,0552;-0,0038;32,06011578;34,79517866;0,00000000;
8,2670;-0,0377;0,0452;-1,0197;-0,2213;0,0775;-0,1419;0,0151;0,0552;-0,0038;32,06011578;34,79517866;0,00000000;
8,2700;-0,0485;0,0521;-1,0138;-0,2213;0,0775;-0,1419;0,0151;0,0552;-0,0038;32,06011578;34,79517866;0,00000000;
8,2720;-0,0343;0,0360;-1,0094;-0,2213;0,0775;-0,1419;0,0151;0,0552;-0,0038;32,06011578;34,79517866;0,00000000;
8,2730;-0,0250;0,0316;-1,0094;-0,2213;0,0775;-0,1419;0,0151;0,0552;-0,0038;32,06011578;34,79517866;0,00000000;
8,2740;-0,0275;0,0394;-1,0128;-0,2213;0,0775;-0,1419;0,0151;0,0552;-0,0038;32,06011578;34,79517866;0,00000000;
8,3080;-0,0275;0,0394;-1,0128;-0,2213;0,0775;-0,1419;-0,0067;0,0398;-0,0038;32,06011578;34,79517866;0,00000000;
8,3100;-0,0275;0,0394;-1,0128;-0,2104;0,0666;-0,1260;-0,0067;0,0398;-0,0038;32,06011578;34,79517866;0,00000000;
8,3440;-0,0275;0,0394;-1,0128;-0,2104;0,0666;-0,1260;0,0029;0,0792;-0,1674;32,06011578;34,79517866;0,00000000;
8,3470;-0,0275;0,0394;-1,0128;-0,0845;-0,0083;-0,1129;0,0029;0,0792;-0,1674;32,06011578;34,79517866;0,00000000;
8,3480;-0,0241;0,0384;-1,0212;-0,0845;-0,0083;-0,1129;0,0029;0,0792;-0,1674;32,06011578;34,79517866;0,00000000;
8,3490;-0,0094;0,0145;-1,0085;-0,0845;-0,0083;-0,1129;0,0029;0,0792;-0,1674;32,06011578;34,79517866;0,00000000;
8,3510;-0,0162;0,0135;-1,0343;-0,0845;-0,0083;-0,1129;0,0029;0,0792;-0,1674;32,06011578;34,79517866;0,00000000;
8,3530;-0,0216;0,0061;-1,0837;-0,0845;-0,0083;-0,1129;0,0029;0,0792;-0,1674;32,06011578;34,79517866;0,00000000;
8,3850;-0,0216;0,0061;-1,0837;-0,0845;-0,0083;-0,1129;0,0151;0,4510;-0,3943;32,06011578;34,79517866;0,00000000;
8,3880;-0,0216;0,0061;-1,0837;-0,1561;-0,2428;-0,3762;0,0151;0,4510;-0,3943;32,06011578;34,79517866;0,00000000;
8,4230;-0,0216;0,0061;-1,0837;-0,1561;-0,2428;-0,3762;0,0151;1,1738;-0,3042;32,06011578;34,79517866;0,00000000;
8,4260;-0,0216;0,0061;-1,0837;-0,6974;0,2623;-0,8824;0,0151;1,1738;-0,3042;32,06011578;34,79517866;0,00000000;
8,4280;-0,0353;0,0511;-1,0720;-0,6974;0,2623;-0,8824;0,0151;1,1738;-0,3042;32,06011578;34,79517866;0,00000000;
8,4290;-0,0241;0,0487;-1,0871;-0,6974;0,2623;-0,8824;0,0151;1,1738;-0,3042;32,06011578;34,79517866;0,00000000;
8,4310;-0,0187;0,0892;-1,1238;-0,6974;0,2623;-0,8824;0,0151;1,1738;-0,3042;32,06011578;34,79517866;0,00000000;
8,4320;-0,0084;0,0618;-1,2054;-0,6974;0,2623;-0,8824;0,0151;1,1738;-0,3042;32,06011578;34,79517866;0,00000000;
8,4640;-0,0084;0,0618;-1,2054;-0,6974;0,2623;-0,8824;-0,0237;2,5022;0,1389;32,06011578;34,79517866;0,00000000;
8,4670;-0,0084;0,0618;-1,2054;-1,6432;0,2550;-0,9587;-0,0237;2,5022;0,1389;32,06011578;34,79517866;0,00000000;
8,5030;-0,0084;0,0618;-1,2054;-2,4526;0,3412;-1,5978;-0,0237;2,5022;0,1389;32,06011578;34,79517866;0,00000000;
8,5070;-0,0084;0,0618;-1,2054;-2,4526;0,3412;-1,5978;-0,0941;3,4470;0,3871;32,06011578;34,79517866;0,00000000;
8,5090;-0,0250;0,1044;-1,1335;-2,4526;0,3412;-1,5978;-0,0941;3,4470;0,3871;32,06011578;34,79517866;0,00000000;
8,5100;0,0996;0,0521;-1,0617;-2,4526;0,3412;-1,5978;-0,0941;3,4470;0,3871;32,06011578;34,79517866;0,00000000;
8,5120;0,2276;-0,0154;-0,9371;-2,4526;0,3412;-1,5978;-0,0941;3,4470;0,3871;32,06011578;34,79517866;0,00000000;
8,5130;0,3038;-0,0154;-0,8076;-2,4526;0,3412;-1,5978;-0,0941;3,4470;0,3871;32,06011578;34,79517866;0,00000000;
8,5440;0,3038;-0,0154;-0,8076;-3,4624;0,3300;-1,9322;-0,0941;3,4470;0,3871;32,06011578;34,79517866;0,00000000;
8,5470;0,3038;-0,0154;-0,8076;-3,4624;0,3300;-1,9322;-0,0275;2,8894;0,0452;32,06011578;34,79517866;0,00000000;
8,5810;0,3038;-0,0154;-0,8076;-3,4624;0,3300;-1,9322;0,1339;1,9573;-0,3202;32,06011578;34,79517866;0,00000000;
8,5840;0,3121;0,0423;-0,8628;-3,4624;0,3300;-1,9322;0,1339;1,9573;-0,3202;32,06011578;34,79517866;0,00000000;
8,5860;0,4006;0,0790;-0,7954;-3,4624;0,3300;-1,9322;0,1339;1,9573;-0,3202;32,06011578;34,79517866;0,00000000;
8,5880;0,4255;0,0071;-0,7969;-3,4624;0,3300;-1,9322;0,1339;1,9573;-0,3202;32,06011578;34,79517866;0,00000000;
8,5900;0,4245;-0,0178;-0,9166;-3,4624;0,3300;-1,9322;0,1339;1,9573;-0,3202;32,06011578;34,79517866;0,00000000;
8,5910;0,4245;-0,0178;-0,9166;-1,5904;-0,3440;0,3425;0,1339;1,9573;-0,3202;32,06011578;34,79517866;0,00000000;
8,6240;0,4245;-0,0178;-0,9166;-0,8536;-0,1578;0,3345;0,1339;1,9573;-0,3202;32,06011578;34,79517866;0,00000000;
8,6270;0,4245;-0,0178;-0,9166;-0,8536;-0,1578;0,3345;0,1499;1,7746;-0,2893;32,06011578;34,79517866;0,00000000;
8,6610;0,4245;-0,0178;-0,9166;-0,8536;-0,1578;0,3345;0,0609;1,8918;-0,0928;32,06011578;34,79517866;0,00000000;
8,6640;0,4245;-0,0178;-0,9166;-0,8560;0,1161;-0,0132;0,0609;1,8918;-0,0928;32,06011578;34,79517866;0,00000000;
8,6650;0,4489;0,0452;-0,8785;-0,8560;0,1161;-0,0132;0,0609;1,8918;-0,0928;32,06011578;34,79517866;0,00000000;
8,6680;0,4812;0,0560;-0,8067;-0,8560;0,1161;-0,0132;0,0609;1,8918;-0,0928;32,06011578;34,79517866;0,00000000;
8,6700;0,5061;0,0511;-0,8101;-0,8560;0,1161;-0,0132;0,0609;1,8918;-0,0928;32,06011578;34,79517866;0,00000000;
8,6710;0,5344;0,0501;-0,8091;-0,8560;0,1161;-0,0132;0,0609;1,8918;-0,0928;32,06011578;34,79517866;0,00000000;
8,7020;0,5344;0,0501;-0,8091;-0,8560;0,1161;-0,0132;0,0040;1,8257;-0,0022;32,06011578;34,79517866;0,00000000;
8,7050;0,5344;0,0501;-0,8091;-1,4052;0,1151;-0,4277;0,0040;1,8257;-0,0022;32,06011578;34,79517866;0,00000000;
8,7410;0,5344;0,0501;-0,8091;-1,4052;0,1151;-0,4277;0,0034;1,7197;-0,0012;32,06011578;34,79517866;0,00000000;
8,7440;0,5730;0,0399;-0,7558;-1,4052;0,1151;-0,4277;0,0034;1,7197;-0,0012;32,06011578;34,79517866;0,00000000;
8,7460;0,6053;0,0369;-0,7094;-1,4052;0,1151;-0,4277;0,0034;1,7197;-0,0012;32,06011578;34,79517866;0,00000000;
8,7470;0,6302;0,0360;-0,7148;-1,4052;0,1151;-0,4277;0,0034;1,7197;-0,0012;32,06011578;34,79517866;0,00000000;
8,7490;0,6600;0,0252;-0,7182;-1,4052;0,1151;-0,4277;0,0034;1,7197;-0,0012;32,06011578;34,79517866;0,00000000;
8,7500;0,6600;0,0252;-0,7182;-0,9965;0,0323;-0,1368;0,0034;1,7197;-0,0012;32,06011578;34,79517866;0,00000000;
8,7800;0,6600;0,0252;-0,7182;-0,9965;0,0323;-0,1368;0,0663;1,8976;-0,0646;32,06011578;34,79517866;0,00000000;
8,7820;0,6600;0,0252;-0,7182;-1,4988;0,0325;-0,6401;0,0663;1,8976;-0,0646;32,06011578;34,79517866;0,00000000;
8,8190;0,6600;0,0252;-0,7182;-1,4988;0,0325;-0,6401;0,0343;2,1985;-0,0113;32,06011578;34,79517866;0,00000000;
8,8210;0,6600;0,0252;-0,7182;-1,2635;-0,0519;-0,8748;0,0343;2,1985;-0,0113;32,06011578;34,79517866;0,00000000;
8,8220;0,6605;0,0379;-0,7211;-1,2635;-0,0519;-0,8748;0,0343;2,1985;-0,0113;32,06011578;34,79517866;0,00000000;
8,8230;0,6600;0,0496;-0,6918;-1,2635;-0,0519;-0,8748;0,0343;2,1985;-0,0113;32,06011578;34,79517866;0,00000000;
8,8240;0,7186;0,0404;-0,5311;-1,2635;-0,0519;-0,8748;0,0343;2,1985;-0,0113;32,06011578;34,79517866;0,00000000;
8,8250;0,7587;0,0350;-0,4783;-1,2635;-0,0519;-0,8748;0,0343;2,1985;-0,0113;32,06011578;34,79517866;0,00000000;
8,8600;0,7587;0,0350;-0,4783;-1,2635;-0,0519;-0,8748;0,0040;1,6851;0,0345;32,06011578;34,79517866;0,00000000;
8,8620;0,7587;0,0350;-0,4783;-1,0306;0,0437;0,0809;0,0040;1,6851;0,0345;32,06011578;34,79517866;0,00000000;
8,8970;0,7587;0,0350;-0,4783;-1,0306;0,0437;0,0809;-0,0030;1,2334;0,0063;32,06011578;34,79517866;0,00000000;
8,8990;0,7587;0,0350;-0,4783;-0,5341;-0,0216;0,4979;-0,0030;1,2334;0,0063;32,06011578;34,79517866;0,00000000;
8,8990;0,7841;0,0330;-0,4974;-0,5341;-0,0216;0,4979;-0,0030;1,2334;0,0063;32,06011578;34,79517866;0,00000000;
8,9000;0,7870;0,0360;-0,4954;-0,5341;-0,0216;0,4979;-0,0030;1,2334;0,0063;32,06011578;34,79517866;0,00000000;
8,9010;0,7968;0,0355;-0,4563;-0,5341;-0,0216;0,4979;-0,0030;1,2334;0,0063;32,06011578;34,79517866;0,00000000;
8,9020;0,8110;0,0320;-0,4441;-0,5341;-0,0216;0,4979;-0,0030;1,2334;0,0063;32,06011578;34,79517866;0,00000000;
8,9390;0,8110;0,0320;-0,4441;-0,5341;-0,0216;0,4979;-0,0078;1,0273;0,0031;32,06011578;34,79517866;0,00000000;
8,9420;0,8110;0,0320;-0,4441;-0,7276;-0,0218;0,1547;-0,0078;1,0273;0,0031;32,06011578;34,79517866;0,00000000;
8,9790;0,8110;0,0320;-0,4441;-0,7276;-0,0218;0,1547;-0,0035;0,8025;0,0020;32,06011578;34,79517866;0,00000000;
8,9810;0,8110;0,0320;-0,4441;-0,5596;-0,0402;0,4172;-0,0035;0,8025;0,0020;32,06011578;34,79517866;0,00000000;
8,9820;0,8212;0,0325;-0,4368;-0,5596;-0,0402;0,4172;-0,0035;0,8025;0,0020;32,06011578;34,79517866;0,00000000;
8,9860;0,8305;0,0340;-0,4026;-0,5596;-0,0402;0,4172;-0,0035;0,8025;0,0020;32,06011578;34,79517866;0,00000000;
8,9880;0,8369;0,0350;-0,4065;-0,5596;-0,0402;0,4172;-0,0035;0,8025;0,0020;32,06011578;34,79517866;0,00000000;
8,9890;0,8423;0,0350;-0,4006;-0,5596;-0,0402;0,4172;-0,0035;0,8025;0,0020;32,06011578;34,79517866;0,00000000;
9,0180;0,8423;0,0350;-0,4006;-0,5596;-0,0402;0,4172;-0,0008;0,6374;0,0004;32,06011578;34,79517866;0,00000000;
9,0200;0,8423;0,0350;-0,4006;-0,6619;-0,0396;0,1954;-0,0008;0,6374;0,0004;32,06011578;34,79517866;0,00000000;
9,0590;0,8423;0,0350;-0,4006;-0,6619;-0,0396;0,1954;0,0008;0,5362;-0,0017;32,06011578;34,79517866;0,00000000;
9,0610;0,8423;0,0350;-0,4006;-0,5412;-0,0190;0,3045;0,0008;0,5362;-0,0017;32,06011578;34,79517866;0,00000000;
9,0630;0,8457;0,0350;-0,3845;-0,5412;-0,0190;0,3045;0,0008;0,5362;-0,0017;32,06011578;34,79517866;0,00000000;
9,0640;0,8520;0,0345;-0,3801;-0,5412;-0,0190;0,3045;0,0008;0,5362;-0,0017;32,06011578;34,79517866;0,00000000;
9,0660;0,8598;0,0340;-0,3532;-0,5412;-0,0190;0,3045;0,0008;0,5362;-0,0017;32,06011578;34,79517866;0,00000000;
9,0680;0,8598;0,0345;-0,3635;-0,5412;-0,0190;0,3045;0,0008;0,5362;-0,0017;32,06011578;34,79517866;0,00000000;
9,0980;0,8598;0,0345;-0,3635;-0,5412;-0,0190;0,3045;0,0327;0,4515;-0,0140;32,06011578;34,79517866;0,00000000;
9,0990;0,8598;0,0345;-0,3635;-0,4537;-0,0245;0,4493;0,0327;0,4515;-0,0140;32,06011578;34,79517866;0,00000000;
9,1370;0,8598;0,0345;-0,3635;-0,4537;-0,0245;0,4493;0,1707;0,3040;-0,0656;32,06011578;34,79517866;0,00000000;
9,1390;0,8598;0,0345;-0,3635;-0,3463;-0,0471;0,8131;0,1707;0,3040;-0,0656;32,06011578;34,79517866;0,00000000;
9,1410;0,8677;0,0296;-0,3464;-0,3463;-0,0471;0,8131;0,1707;0,3040;-0,0656;32,06011578;34,79517866;0,00000000;
9,1420;0,8794;0,0247;-0,2833;-0,3463;-0,0471;0,8131;0,1707;0,3040;-0,0656;32,06011578;34,79517866;0,00000000;
9,1440;0,8701;0,0404;-0,3195;-0,3463;-0,0471;0,8131;0,1707;0,3040;-0,0656;32,06011578;34,79517866;0,00000000;
9,1460;0,8476;0,0438;-0,4334;-0,3463;-0,0471;0,8131;0,1707;0,3040;-0,0656;32,06011578;34,79517866;0,00000000;
9,1770;0,8476;0,0438;-0,4334;-0,3463;-0,0471;0,8131;0,0364;0,2592;-0,0172;32,06011578;34,79517866;0,00000000;
9,1810;0,8476;0,0438;-0,4334;-0,3794;-0,0467;0,7100;0,0364;0,2592;-0,0172;32,06011578;34,79517866;0,00000000;
9,2140;0,8476;0,0438;-0,4334;-0,3794;-0,0467;0,7100;-0,0397;0,3919;0,0105;32,06011578;34,79517866;0,00000000;
9,2170;0,8476;0,0438;-0,4334;-0,5056;0,0132;0,0586;-0,0397;0,3919;0,0105;32,06011578;34,79517866;0,00000000;
9,2180;0,8726;0,0340;-0,3376;-0,5056;0,0132;0,0586;-0,0397;0,3919;0,0105;32,06011578;34,79517866;0,00000000;
9,2190;0,8735;0,0360;-0,3347;-0,5056;0,0132;0,0586;-0,0397;0,3919;0,0105;32,06011578;34,79517866;0,00000000;
9,2190;0,8770;0,0325;-0,3518;-0,5056;0,0132;0,0586;-0,0397;0,3919;0,0105;32,06011578;34,79517866;0,00000000;
9,2200;0,8779;0,0330;-0,3342;-0,5056;0,0132;0,0586;-0,0397;0,3919;0,0105;32,06011578;34,79517866;0,00000000;
9,2550;0,8779;0,0330;-0,3342;-0,5056;0,0132;0,0586;0,0056;0,5825;0,0010;32,06011578;34,79517866;0,00000000;
9,2570;0,8779;0,0330;-0,3342;-0,5781;0,0140;-0,1468;0,0056;0,5825;0,0010;32,06011578;34,79517866;0,00000000;
9,2950;0,8779;0,0330;-0,3342;-0,5781;0,0140;-0,1468;0,0002;0,4984;0,0031;32,06011578;34,79517866;0,00000000;
9,2970;0,8779;0,0330;-0,3342;-0,5037;-0,0212;0,0654;0,0002;0,4984;0,0031;32,06011578;34,79517866;0,00000000;
9,2980;0,8794;0,0369;-0,2995;-0,5037;-0,0212;0,0654;0,0002;0,4984;0,0031;32,06011578;34,79517866;0,00000000;
9,2990;0,8867;0,0374;-0,2672;-0,5037;-0,0212;0,0654;0,0002;0,4984;0,0031;32,06011578;34,79517866;0,00000000;
9,3000;0,8906;0,0335;-0,2687;-0,5037;-0,0212;0,0654;0,0002;0,4984;0,0031;32,06011578;34,79517866;0,00000000;
9,3020;0,8936;0,0316;-0,2638;-0,5037;-0,0212;0,0654;0,0002;0,4984;0,0031;32,06011578;34,79517866;0,00000000;
9,3350;0,8936;0,0316;-0,2638;-0,5037;-0,0212;0,0654;-0,0099;0,3423;0,0020;32,06011578;34,79517866;0,00000000;
9,3380;0,8936;0,0316;-0,2638;-0,4206;-0,0213;0,5390;-0,0099;0,3423;0,0020;32,06011578;34,79517866;0,00000000;
9,3740;0,8936;0,0316;-0,2638;-0,4206;-0,0213;0,5390;-0,0163;0,2257;0,0031;32,06011578;34,79517866;0,00000000;
9,3760;0,8936;0,0316;-0,2638;-0,4033;-0,0140;0,6172;-0,0163;0,2257;0,0031;32,06011578;34,79517866;0,00000000;
9,3780;0,8945;0,0350;-0,2619;-0,4033;-0,0140;0,6172;-0,0163;0,2257;0,0031;32,06011578;34,79517866;0,00000000;
9,3800;0,8945;0,0345;-0,2506;-0,4033;-0,0140;0,6172;-0,0163;0,2257;0,0031;32,06011578;34,79517866;0,00000000;
9,3810;0,8936;0,0355;-0,2350;-0,4033;-0,0140;0,6172;-0,0163;0,2257;0,0031;32,06011578;34,79517866;0,00000000;
9,3820;0,8989;0,0364;-0,2281;-0,4033;-0,0140;0,6172;-0,0163;0,2257;0,0031;32,06011578;34,79517866;0,00000000;
9,4140;0,8989;0,0364;-0,2281;-0,4033;-0,0140;0,6172;-0,0152;0,0057;0,0036;32,06011578;34,79517866;0,00000000;
9,4170;0,8989;0,0364;-0,2281;-0,3973;-0,0143;0,6046;-0,0152;0,0057;0,0036;32,06011578;34,79517866;0,00000000;
9,4530;0,8989;0,0364;-0,2281;-0,3973;-0,0143;0,6046;0,0072;-0,0833;-0,0022;32,06011578;34,79517866;0,00000000;
9,4560;0,8989;0,0364;-0,2281;-0,3415;-0,0156;0,7138;0,0072;-0,0833;-0,0022;32,06011578;34,79517866;0,00000000;
9,4580;0,8989;0,0345;-0,2399;-0,3415;-0,0156;0,7138;0,0072;-0,0833;-0,0022;32,06011578;34,79517866;0,00000000;
9,4590;0,8970;0,0335;-0,2516;-0,3415;-0,0156;0,7138;0,0072;-0,0833;-0,0022;32,06011578;34,79517866;0,00000000;
9,4610;0,8994;0,0335;-0,2604;-0,3415;-0,0156;0,7138;0,0072;-0,0833;-0,0022;32,06011578;34,79517866;0,00000000;
9,4630;0,8950;0,0325;-0,2760;-0,3415;-0,0156;0,7138;0,0072;-0,0833;-0,0022;32,06011578;34,79517866;0,00000000;
9,4940;0,8950;0,0325;-0,2760;-0,3415;-0,0156;0,7138;0,0189;0,0510;-0,0054;32,06011578;34,79517866;0,00000000;
9,4960;0,8950;0,0325;-0,2760;-0,3418;-0,0150;0,6840;0,0189;0,0510;-0,0054;32,06011578;34,79517866;0,00000000;
9,5320;0,8950;0,0325;-0,2760;-0,3418;-0,0150;0,6840;0,0189;0,2001;-0,0070;32,06011578;34,79517866;0,00000000;
9,5340;0,8950;0,0325;-0,2760;-0,3829;-0,0245;0,2563;0,0189;0,2001;-0,0070;32,06011578;34,79517866;0,00000000;
9,5370;0,8931;0,0355;-0,2907;-0,3829;-0,0245;0,2563;0,0189;0,2001;-0,0070;32,06011578;34,79517866;0,00000000;
9,5380;0,8975;0,0364;-0,2614;-0,3829;-0,0245;0,2563;0,0189;0,2001;-0,0070;32,06011578;34,79517866;0,00000000;
9,5400;0,8975;0,0350;-0,2311;-0,3829;-0,0245;0,2563;0,0189;0,2001;-0,0070;32,06011578;34,79517866;0,00000000;
9,5410;0,8994;0,0335;-0,2399;-0,3829;-0,0245;0,2563;0,0189;0,2001;-0,0070;32,06011578;34,79517866;0,00000000;
9,5730;0,8994;0,0335;-0,2399;-0,3829;-0,0245;0,2563;-0,0136;0,0414;-0,0006;32,06011578;34,79517866;0,00000000;
9,5760;0,8994;0,0335;-0,2399;-0,3593;-0,0149;0,5415;-0,0136;0,0414;-0,0006;32,06011578;34,79517866;0,00000000;
9,6120;0,8994;0,0335;-0,2399;-0,3593;-0,0149;0,5415;-0,0434;-0,1014;0,0036;32,06011578;34,79517866;0,00000000;
9,6140;0,8994;0,0335;-0,2399;-0,3231;-0,0066;0,4298;-0,0434;-0,1014;0,0036;32,06011578;34,79517866;0,00000000;
9,6150;0,8989;0,0355;-0,2325;-0,3231;-0,0066;0,4298;-0,0434;-0,1014;0,0036;32,06011578;34,79517866;0,00000000;
9,6180;0,8989;0,0355;-0,2501;-0,3231;-0,0066;0,4298;-0,0434;-0,1014;0,0036;32,06011578;34,79517866;0,00000000;
9,6200;0,8916;0,0374;-0,2785;-0,3231;-0,0066;0,4298;-0,0434;-0,1014;0,0036;32,06011578;34,79517866;0,00000000;
9,6210;0,8970;0,0355;-0,2736;-0,3231;-0,0066;0,4298;-0,0434;-0,1014;0,0036;32,06011578;34,79517866;0,00000000;
9,6510;0,8970;0,0355;-0,2736;-0,3231;-0,0066;0,4298;-0,0855;-0,0673;0,0121;32,06011578;34,79517866;0,00000000;
9,6530;0,8970;0,0355;-0,2736;-0,2804;-0,0108;0,4025;-0,0855;-0,0673;0,0121;32,06011578;34,79517866;0,00000000;
9,6920;0,8970;0,0355;-0,2736;-0,2804;-0,0108;0,4025;-0,1500;-0,1248;0,0164;32,06011578;34,79517866;0,00000000;
9,6940;0,8970;0,0355;-0,2736;-0,2523;-0,0226;0,2963;-0,1500;-0,1248;0,0164;32,06011578;34,79517866;0,00000000;
9,6960;0,8945;0,0350;-0,2614;-0,2523;-0,0226;0,2963;-0,1500;-0,1248;0,0164;32,06011578;34,79517866;0,00000000;
9,6970;0,8926;0,0369;-0,2604;-0,2523;-0,0226;0,2963;-0,1500;-0,1248;0,0164;32,06011578;34,79517866;0,00000000;
9,6990;0,9048;0,0316;-0,2677;-0,2523;-0,0226;0,2963;-0,1500;-0,1248;0,0164;32,06011578;34,79517866;0,00000000;
9,7000;0,9322;0,0213;-0,2956;-0,2523;-0,0226;0,2963;-0,1500;-0,1248;0,0164;32,06011578;34,79517866;0,00000000;
9,7310;0,9322;0,0213;-0,2956;-0,2523;-0,0226;0,2963;-0,2959;-0,3085;-0,0603;32,06011578;34,79517866;0,00000000;
9,7350;0,9322;0,0213;-0,2956;-0,1914;-0,0698;0,3569;-0,2959;-0,3085;-0,0603;32,06011578;34,79517866;0,00000000;
9,7690;0,9322;0,0213;-0,2956;-0,1914;-0,0698;0,3569;-0,3641;-0,1834;-0,2526;32,06011578;34,79517866;0,00000000;
9,7720;0,9322;0,0213;-0,2956;0,1251;-0,3183;0,2197;-0,3641;-0,1834;-0,2526;32,06011578;34,79517866;0,00000000;
9,7730;0,9366;0,0174;-0,2907;0,1251;-0,3183;0,2197;-0,3641;-0,1834;-0,2526;32,06011578;34,79517866;0,00000000;
9,7740;0,9546;0,0140;-0,3019;0,1251;-0,3183;0,2197;-0,3641;-0,1834;-0,2526;32,06011578;34,79517866;0,00000000;
9,7760;0,9439;0,0228;-0,3176;0,1251;-0,3183;0,2197;-0,3641;-0,1834;-0,2526;32,06011578;34,79517866;0,00000000;
9,7780;0,9849;0,0145;-0,3224;0,1251;-0,3183;0,2197;-0,3641;-0,1834;-0,2526;32,06011578;34,79517866;0,00000000;
9,8110;0,9849;0,0145;-0,3224;0,1251;-0,3183;0,2197;-0,3545;0,2001;-0,5269;32,06011578;34,79517866;0,00000000;
9,8140;0,9849;0,0145;-0,3224;0,4667;-0,5988;-0,1452;-0,3545;0,2001;-0,5269;32,06011578;34,79517866;0,00000000;
9,8500;0,9849;0,0145;-0,3224;0,4667;-0,5988;-0,1452;-0,3955;0,2502;-0,7469;32,06011578;34,79517866;0,00000000;
9,8530;0,9849;0,0145;-0,3224;0,2599;-0,5137;0,1044;-0,3955;0,2502;-0,7469;32,06011578;34,79517866;0,00000000;
9,8550;0,9620;0,0345;-0,2980;0,2599;-0,5137;0,1044;-0,3955;0,2502;-0,7469;32,06011578;34,79517866;0,00000000;
9,8570;0,9268;0,0633;-0,2750;0,2599;-0,5137;0,1044;-0,3955;0,2502;-0,7469;32,06011578;34,79517866;0,00000000;
9,8580;0,9331;0,0716;-0,2604;0,2599;-0,5137;0,1044;-0,3955;0,2502;-0,7469;32,06011578;34,79517866;0,00000000;
9,8600;0,9351;0,0877;-0,2535;0,2599;-0,5137;0,1044;-0,3955;0,2502;-0,7469;32,06011578;34,79517866;0,00000000;
9,8880;0,9351;0,0877;-0,2535;0,2599;-0,5137;0,1044;-0,4498;0,0595;-0,8869;32,06011578;34,79517866;0,00000000;
9,8900;0,9351;0,0877;-0,2535;0,2922;-0,8628;0,0600;-0,4498;0,0595;-0,8869;32,06011578;34,79517866;0,00000000;
9,9290;0,9351;0,0877;-0,2535;0,2922;-0,8628;0,0600;-0,4456;-0,0060;-0,9988;32,06011578;34,79517866;0,00000000;
9,9310;0,9253;0,1112;-0,2516;0,2922;-0,8628;0,0600;-0,4456;-0,0060;-0,9988;32,06011578;34,79517866;0,00000000;
9,9330;0,9116;0,1337;-0,2487;0,2922;-0,8628;0,0600;-0,4456;-0,0060;-0,9988;32,06011578;34,79517866;0,00000000;
9,9340;0,9053;0,1557;-0,2345;0,2922;-0,8628;0,0600;-0,4456;-0,0060;-0,9988;32,06011578;34,79517866;0,00000000;
9,9360;0,8823;0,1860;-0,2228;0,2922;-0,8628;0,0600;-0,4456;-0,0060;-0,9988;32,06011578;34,79517866;0,00000000;
9,9380;0,8823;0,1860;-0,2228;0,1908;-0,7184;0,2889;-0,4456;-0,0060;-0,9988;32,06011578;34,79517866;0,00000000;
9,9690;0,8823;0,1860;-0,2228;0,1908;-0,7184;0,2889;-0,4621;-0,1898;-1,0345;32,06011578;34,79517866;0,00000000;
9,9740;0,8823;0,1860;-0,2228;0,2890;-1,1110;0,3130;-0,4621;-0,1898;-1,0345;32,06011578;34,79517866;0,00000000;
10,0080;0,8823;0,1860;-0,2228;0,2890;-1,1110;0,3130;-0,4738;-0,2276;-1,0142;32,06011578;34,79517866;0,00000000;
10,0100;0,8823;0,1860;-0,2228;0,0474;-0,7770;0,5055;-0,4738;-0,2276;-1,0142;32,06011578;34,79517866;0,00000000;
10,0110;0,8735;0,2123;-0,2452;0,0474;-0,7770;0,5055;-0,4738;-0,2276;-1,0142;32,06011578;34,79517866;0,00000000;
10,0120;0,8682;0,2334;-0,2672;0,0474;-0,7770;0,5055;-0,4738;-0,2276;-1,0142;32,06011578;34,79517866;0,00000000;
10,0130;0,8432;0,2622;-0,2643;0,0474;-0,7770;0,5055;-0,4738;-0,2276;-1,0142;32,06011578;34,79517866;0,00000000;
10,0140;0,8335;0,2851;-0,2711;0,0474;-0,7770;0,5055;-0,4738;-0,2276;-1,0142;32,06011578;34,79517866;0,00000000;
10,0480;0,8335;0,2851;-0,2711;0,0474;-0,7770;0,5055;-0,4115;0,0366;-0,9530;32,06011578;34,79517866;0,00000000;
10,0500;0,8335;0,2851;-0,2711;-0,2280;-0,3991;0,1188;-0,4115;0,0366;-0,9530;32,06011578;34,79517866;0,00000000;
10,0860;0,8335;0,2851;-0,2711;-0,2280;-0,3991;0,1188;-0,3183;0,4307;-0,9695;32,06011578;34,79517866;0,00000000;
10,0900;0,8335;0,2851;-0,2711;-0,0530;-0,2961;-0,1319;-0,3183;0,4307;-0,9695;32,06011578;34,79517866;0,00000000;
10,0920;0,8398;0,2998;-0,2736;-0,0530;-0,2961;-0,1319;-0,3183;0,4307;-0,9695;32,06011578;34,79517866;0,00000000;
10,0930;0,8667;0,3052;-0,2809;-0,0530;-0,2961;-0,1319;-0,3183;0,4307;-0,9695;32,06011578;34,79517866;0,00000000;
10,0950;0,8686;0,3159;-0,2692;-0,0530;-0,2961;-0,1319;-0,3183;0,4307;-0,9695;32,06011578;34,79517866;0,00000000;
10,0970;0,8579;0,3369;-0,2340;-0,0530;-0,2961;-0,1319;-0,3183;0,4307;-0,9695;32,06011578;34,79517866;0,00000000;
10,1270;0,8579;0,3369;-0,2340;-0,0530;-0,2961;-0,1319;-0,3465;0,4409;-1,0494;32,06011578;34,79517866;0,00000000;
10,1300;0,8579;0,3369;-0,2340;0,0485;-0,6684;-0,3215;-0,3465;0,4409;-1,0494;32,06011578;34,79517866;0,00000000;
10,1650;0,8579;0,3369;-0,2340;0,0485;-0,6684;-0,3215;-0,3843;0,3322;-1,0899;32,06011578;34,79517866;0,00000000;
10,1690;0,8579;0,3369;-0,2340;0,0506;-0,5285;-0,0215;-0,3843;0,3322;-1,0899;32,06011578;34,79517866;0,00000000;
10,1700;0,8413;0,3623;-0,2213;0,0506;-0,5285;-0,0215;-0,3843;0,3322;-1,0899;32,06011578;34,79517866;0,00000000;
10,1720;0,8349;0,3819;-0,2252;0,0506;-0,5285;-0,0215;-0,3843;0,3322;-1,0899;32,06011578;34,79517866;0,00000000;
10,1730;0,8550;0,3926;-0,2027;0,0506;-0,5285;-0,0215;-0,3843;0,3322;-1,0899;32,06011578;34,79517866;0,00000000;
10,1750;0,8501;0,4078;-0,1876;0,0506;-0,5285;-0,0215;-0,3843;0,3322;-1,0899;32,06011578;34,79517866;0,00000000;
10,2070;0,8501;0,4078;-0,1876;0,0506;-0,5285;-0,0215;-0,3604;0,3540;-1,1948;32,06011578;34,79517866;0,00000000;
10,2100;0,8501;0,4078;-0,1876;0,2193;-0,9284;-0,1933;-0,3604;0,3540;-1,1948;32,06011578;34,79517866;0,00000000;
10,2440;0,8501;0,4078;-0,1876;0,2193;-0,9284;-0,1933;-0,3071;0,3865;-1,2683;32,06011578;34,79517866;0,00000000;
10,2460;0,8501;0,4078;-0,1876;0,3936;-0,8393;-0,0046;-0,3071;0,3865;-1,2683;32,06011578;34,79517866;0,00000000;
10,2470;0,8217;0,4332;-0,1778;0,3936;-0,8393;-0,0046;-0,3071;0,3865;-1,2683;32,06011578;34,79517866;0,00000000;
10,2480;0,8085;0,4581;-0,1685;0,3936;-0,8393;-0,0046;-0,3071;0,3865;-1,2683;32,06011578;34,79517866;0,00000000;
10,2480;0,7841;0,4899;-0,1597;0,3936;-0,8393;-0,0046;-0,3071;0,3865;-1,2683;32,06011578;34,79517866;0,00000000;
10,2490;0,7758;0,5133;-0,1495;0,3936;-0,8393;-0,0046;-0,3071;0,3865;-1,2683;32,06011578;34,79517866;0,00000000;
10,2840;0,7758;0,5133;-0,1495;0,3936;-0,8393;-0,0046;-0,2869;0,3152;-1,2811;32,06011578;34,79517866;0,00000000;
10,2860;0,7758;0,5133;-0,1495;0,1099;-0,4999;0,1341;-0,2869;0,3152;-1,2811;32,06011578;34,79517866;0,00000000;
10,3230;0,7758;0,5133;-0,1495;0,1099;-0,4999;0,1341;-0,2757;0,1346;-1,2715;32,06011578;34,79517866;0,00000000;
10,3240;0,7758;0,5133;-0,1495;-0,1098;-0,1538;0,3664;-0,2757;0,1346;-1,2715;32,06011578;34,79517866;0,00000000;
10,3250;0,7699;0,5319;-0,1294;-0,1098;-0,1538;0,3664;-0,2757;0,1346;-1,2715;32,06011578;34,79517866;0,00000000;
10,3260;0,7392;0,5632;-0,1114;-0,1098;-0,1538;0,3664;-0,2757;0,1346;-1,2715;32,06011578;34,79517866;0,00000000;
10,3260;0,7098;0,5925;-0,1333;-0,1098;-0,1538;0,3664;-0,2757;0,1346;-1,2715;32,06011578;34,79517866;0,00000000;
10,3270;0,6957;0,6159;-0,1363;-0,1098;-0,1538;0,3664;-0,2757;0,1346;-1,2715;32,06011578;34,79517866;0,00000000;
10,3640;0,6957;0,6159;-0,1363;-0,1098;-0,1538;0,3664;-0,1984;0,2742;-1,2097;32,06011578;34,79517866;0,00000000;
10,3650;0,6957;0,6159;-0,1363;0,1511;-0,5034;0,2382;-0,1984;0,2742;-1,2097;32,06011578;34,79517866;0,00000000;
10,4030;0,6957;0,6159;-0,1363;0,1511;-0,5034;0,2382;-0,1132;0,5517;-1,2220;32,06011578;34,79517866;0,00000000;
10,4040;0,6957;0,6159;-0,1363;0,0512;-0,2204;-0,0428;-0,1132;0,5517;-1,2220;32,06011578;34,79517866;0,00000000;
10,4050;0,6957;0,6281;-0,1377;0,0512;-0,2204;-0,0428;-0,1132;0,5517;-1,2220;32,06011578;34,79517866;0,00000000;
10,4050;0,7147;0,6340;-0,1314;0,0512;-0,2204;-0,0428;-0,1132;0,5517;-1,2220;32,06011578;34,79517866;0,00000000;
10,4060;0,6879;0,6555;-0,1182;0,0512;-0,2204;-0,0428;-0,1132;0,5517;-1,2220;32,06011578;34,79517866;0,00000000;
10,4070;0,6263;0,6922;-0,0762;0,0512;-0,2204;-0,0428;-0,1132;0,5517;-1,2220;32,06011578;34,79517866;0,00000000;
10,4430;0,6263;0,6922;-0,0762;0,0512;-0,2204;-0,0428;-0,0887;0,4691;-1,1895;32,06011578;34,79517866;0,00000000;
10,4440;0,6263;0,6922;-0,0762;0,3302;-0,5308;-0,1868;-0,0887;0,4691;-1,1895;32,06011578;34,79517866;0,00000000;
10,4820;0,6263;0,6922;-0,0762;0,3302;-0,5308;-0,1868;-0,1361;0,1021;-1,0734;32,06011578;34,79517866;0,00000000;
10,4870;0,6263;0,6922;-0,0762;-0,0185;-0,1928;0,2268;-0,1361;0,1021;-1,0734;32,06011578;34,79517866;0,00000000;
10,4900;0,5980;0,7181;-0,0640;-0,0185;-0,1928;0,2268;-0,1361;0,1021;-1,0734;32,06011578;34,79517866;0,00000000;
10,4910;0,6121;0,7259;-0,0742;-0,0185;-0,1928;0,2268;-0,1361;0,1021;-1,0734;32,06011578;34,79517866;0,00000000;
10,4930;0,6234;0,7317;-0,0786;-0,0185;-0,1928;0,2268;-0,1361;0,1021;-1,0734;32,06011578;34,79517866;0,00000000;
10,4940;0,6195;0,7440;-0,0801;-0,0185;-0,1928;0,2268;-0,1361;0,1021;-1,0734;32,06011578;34,79517866;0,00000000;
10,5240;0,6195;0,7440;-0,0801;-0,0185;-0,1928;0,2268;-0,1122;0,1053;-1,0712;32,06011578;34,79517866;0,00000000;
10,5270;0,6195;0,7440;-0,0801;0,0888;-0,0129;0,2487;-0,1122;0,1053;-1,0712;32,06011578;34,79517866;0,00000000;
10,5630;0,6195;0,7440;-0,0801;0,0888;-0,0129;0,2487;-0,1148;0,0408;-1,0004;32,06011578;34,79517866;0,00000000;
10,5660;0,6195;0,7440;-0,0801;-0,3069;0,2706;0,2637;-0,1148;0,0408;-1,0004;32,06011578;34,79517866;0,00000000;
10,5670;0,5677;0,7708;-0,0737;-0,3069;0,2706;0,2637;-0,1148;0,0408;-1,0004;32,06011578;34,79517866;0,00000000;
10,5700;0,5276;0,7953;-0,0703;-0,3069;0,2706;0,2637;-0,1148;0,0408;-1,0004;32,06011578;34,79517866;0,00000000;
10,5720;0,5486;0,7957;-0,0698;-0,3069;0,2706;0,2637;-0,1148;0,0408;-1,0004;32,06011578;34,79517866;0,00000000;
10,5730;0,5520;0,8011;-0,0732;-0,3069;0,2706;0,2637;-0,1148;0,0408;-1,0004;32,06011578;34,79517866;0,00000000;
10,6030;0,5520;0,8011;-0,0732;-0,3069;0,2706;0,2637;-0,1127;0,0121;-0,9674;32,06011578;34,79517866;0,00000000;
10,6060;0,5520;0,8011;-0,0732;-0,0176;0,0535;0,2235;-0,1127;0,0121;-0,9674;32,06011578;34,79517866;0,00000000;
10,6410;0,5520;0,8011;-0,0732;-0,0176;0,0535;0,2235;-0,0658;0,0424;-1,0489;32,06011578;34,79517866;0,00000000;
10,6440;0,5520;0,8011;-0,0732;0,2671;0,0550;0,2651;-0,0658;0,0424;-1,0489;32,06011578;34,79517866;0,00000000;
10,6450;0,5408;0,8119;-0,0654;0,2671;0,0550;0,2651;-0,0658;0,0424;-1,0489;32,06011578;34,79517866;0,00000000;
10,6470;0,5413;0,8168;-0,0522;0,2671;0,0550;0,2651;-0,0658;0,0424;-1,0489;32,06011578;34,79517866;0,00000000;
10,6490;0,5364;0,8241;-0,0478;0,2671;0,0550;0,2651;-0,0658;0,0424;-1,0489;32,06011578;34,79517866;0,00000000;
10,6500;0,4988;0,8431;-0,0473;0,2671;0,0550;0,2651;-0,0658;0,0424;-1,0489;32,06011578;34,79517866;0,00000000;
10,6840;0,4988;0,8431;-0,0473;0,2671;0,0550;0,2651;-0,0440;-0,0715;-1,1442;32,06011578;34,79517866;0,00000000;
10,6860;0,4988;0,8431;-0,0473;0,6212;-0,1652;0,2605;-0,0440;-0,0715;-1,1442;32,06011578;34,79517866;0,00000000;
10,7200;0,4988;0,8431;-0,0473;0,6212;-0,1652;0,2605;-0,0030;-0,0071;-1,1341;32,06011578;34,79517866;0,00000000;
10,7220;0,4988;0,8431;-0,0473;0,5309;-0,0536;0,4072;-0,0030;-0,0071;-1,1341;32,06011578;34,79517866;0,00000000;
10,7240;0,4611;0,8588;-0,0488;0,5309;-0,0536;0,4072;-0,0030;-0,0071;-1,1341;32,06011578;34,79517866;0,00000000;
10,7250;0,4279;0,8778;-0,0718;0,5309;-0,0536;0,4072;-0,0030;-0,0071;-1,1341;32,06011578;34,79517866;0,00000000;
10,7270;0,3962;0,8954;-0,0781;0,5309;-0,0536;0,4072;-0,0030;-0,0071;-1,1341;32,06011578;34,79517866;0,00000000;
10,7280;0,3576;0,9125;-0,0767;0,5309;-0,0536;0,4072;-0,0030;-0,0071;-1,1341;32,06011578;34,79517866;0,00000000;
10,7590;0,3576;0,9125;-0,0767;0,5309;-0,0536;0,4072;0,0530;0,2422;-1,0307;32,06011578;34,79517866;0,00000000;
10,7610;0,3576;0,9125;-0,0767;-0,1600;0,2941;0,1133;0,0530;0,2422;-1,0307;32,06011578;34,79517866;0,00000000;
10,7980;0,3576;0,9125;-0,0767;-0,1600;0,2941;0,1133;0,0780;0,3796;-0,9658;32,06011578;34,79517866;0,00000000;
10,8000;0,3576;0,9125;-0,0767;-0,2042;0,4007;0,1134;0,0780;0,3796;-0,9658;32,06011578;34,79517866;0,00000000;
10,8090;0,3473;0,9228;-0,0816;-0,2042;0,4007;0,1134;0,0780;0,3796;-0,9658;32,06011578;34,79517866;0,00000000;
